File: text_data/C1-10.txt
Load (N)	Extension (mm)

-2.5056
-2.5057	-1.2741
-2.5058	-1.2741
-2.5060	-1.2741
-2.5061	-1.2741
-2.5062	-1.2741
-2.5063	-1.2741
-2.5065	-1.2741
-2.5066	-1.2741
-2.5067	-1.2741
-2.5068	-1.2741
-2.5069	-1.2741
-2.5071	-1.2741
-2.5072	-1.2741
-2.5073	-1.2741
-2.5074	-1.2741
-2.5076	-1.2741
-2.5077	-1.2741
-2.5078	-1.2605
-1.0859	-1.2229
-0.87986	-1.1827
-0.67381	-1.1373
-0.46776	-1.0874
-0.26171	-1.0367
-0.055655	-0.98302
0.15040	-0.92935
0.35645	-0.87569
0.56250	-0.82202
0.76855	-0.76835
0.97460	-0.71426
1.1998	-0.66004
1.4879	-0.60582
1.7760	-0.55161
2.0641	-0.49739
2.3523	-0.44318
2.6404	-0.38896
2.9285	-0.33475
3.2166	-0.28053
3.5048	-0.22631
3.7929	-0.17210
4.0810	-0.11788
4.3691	-0.063668
4.6573	-0.0094521
4.9454	0.044367
5.1292	0.082830
5.0532	0.090759
4.9772	0.091595
4.9012	0.092430
4.8253	0.093266
4.7493	0.093869
4.6733	0.093849
4.5973	0.083178
3.8722	0.043928
2.5905	-0.0093887
1.5178	-0.059337
1.2128	-0.10925
0.90789	-0.15916
0.60295	-0.21201
0.29802	-0.26523
-0.0069127	-0.31845
-0.31185	-0.37167
-0.61678	-0.42489
-0.92171	-0.47811
-1.2266	-0.53133
-1.5316	-0.58455
-1.8365	-0.63776
-2.1414	-0.69098
-2.4464	-0.74420
-2.7513	-0.79742
-3.0562	-0.85064
-3.3612	-0.90432
-3.6661	-0.95817
-3.9710	-1.0120
-4.2760	-1.0658
-4.5809	-1.1195
-4.8858	-1.1732
-5.1908	-1.2269
-5.4957	-1.2806
-5.8006	-1.3350
-6.1056	-1.3923
-6.4105	-1.4468
-6.7154	-1.4998
-7.0204	-1.5528
-7.3253	-1.6058
-7.6302	-1.6587
-7.9352	-1.7119
-8.2401	-1.7658
-8.5450	-1.8198
-8.8500	-1.8737
-9.1444	-1.9276
-9.4190	-1.9815
-9.6936	-2.0354
-9.9682	-2.0893
-10.243	-2.1432
-10.517	-2.1972
-10.792	-2.2511
-11.067	-2.3050
-11.341	-2.3589
-11.616	-2.4128
-11.890	-2.4667
-12.165	-2.5206
-12.440	-2.5745
-12.714	-2.6285
-12.989	-2.6824
-13.264	-2.7363
-13.538	-2.7902
-13.813	-2.8441
-14.087	-2.8980
-14.362	-2.9519
-14.637	-3.0059
-14.911	-3.0598
-15.186	-3.1137
-15.460	-3.1676
-15.735	-3.2215
-16.010	-3.2754
-16.284	-3.3293
-16.559	-3.3832
-16.834	-3.4372
-17.108	-3.4911
-17.383	-3.5450
-17.657	-3.5989
-17.932	-3.6528
-18.207	-3.7067
-18.481	-3.7605
-18.756	-3.8144
-19.030	-3.8682
-19.305	-3.9221
-19.580	-3.9759
-19.854	-4.0298
-20.129	-4.0836
-20.404	-4.1375
-20.678	-4.1913
-20.953	-4.2452
-21.227	-4.2991
-21.502	-4.3529
-21.777	-4.4068
-22.051	-4.4606
-22.326	-4.5145
-22.600	-4.5683
-22.875	-4.6222
-23.150	-4.6760
-23.424	-4.7299
-23.699	-4.7837
-23.974	-4.8376
-24.248	-4.8914
-24.523	-4.9453
-24.797	-4.9991
-25.072	-5.0530
-25.347	-5.1068
-25.621	-5.1607
-25.906	-5.2146
-26.193	-5.2684
-26.479	-5.3223
-26.765	-5.3761
-27.051	-5.4300
-27.337	-5.4838
-27.624	-5.5377
-27.910	-5.5915
-28.196	-5.6452
-28.482	-5.6989
-28.768	-5.7526
-29.055	-5.8063
-29.341	-5.8600
-29.627	-5.9137
-29.913	-5.9674
-30.199	-6.0211
-30.486	-6.0748
-30.772	-6.1285
-31.058	-6.1822
-31.344	-6.2359
-31.630	-6.2896
-31.917	-6.3433
-32.203	-6.3969
-32.489	-6.4506
-32.775	-6.5043
-33.061	-6.5580
-33.348	-6.6117
-33.634	-6.6654
-33.920	-6.7191
-34.206	-6.7728
-34.492	-6.8265
-34.779	-6.8802
-35.065	-6.9339
-35.351	-6.9876
-35.637	-7.0413
-35.923	-7.0950
-36.210	-7.1487
-36.496	-7.2024
-36.782	-7.2561
-37.068	-7.3098
-37.354	-7.3635
-37.641	-7.4173
-37.927	-7.4711
-38.031	-7.5249
-37.969	-7.5787
-37.908	-7.6325
-38.113	-7.6863
-38.680	-7.7401
-39.247	-7.7940
-39.814	-7.8478
-40.220	-7.9016
-40.495	-7.9554
-40.770	-8.0092
-41.046	-8.0630
-41.321	-8.1168
-41.596	-8.1706
-41.871	-8.2244
-42.146	-8.2783
-42.422	-8.3321
-42.697	-8.3859
-42.972	-8.4397
-43.247	-8.4935
-43.522	-8.5473
-43.798	-8.6011
-44.073	-8.6549
-44.348	-8.7087
-44.623	-8.7626
-44.898	-8.8164
-45.174	-8.8702
-45.449	-8.9240
-45.724	-8.9778
-45.999	-9.0316
-46.274	-9.0854
-46.550	-9.1391
-46.825	-9.1928
-47.100	-9.2466
-47.375	-9.3003
-47.650	-9.3540
-47.925	-9.4078
-48.201	-9.4615
-48.476	-9.5152
-48.751	-9.5690
-49.026	-9.6227
-49.301	-9.6764
-49.577	-9.7302
-49.852	-9.7839
-50.127	-9.8377
-50.402	-9.8914
-50.677	-9.9451
-50.953	-9.9902
-51.228	-10.026
-49.952	-10.018
-48.989	-10.002
-48.820	-10.002
-48.651	-10.003
-48.482	-10.003
-48.314	-10.002
-48.056	-9.9692
-47.579	-9.9193
-47.102	-9.8694
-46.624	-9.8195
-46.147	-9.7697
-45.670	-9.7198
-45.192	-9.6699
-44.715	-9.6188
-44.238	-9.5650
-43.760	-9.5112
-43.327	-9.4575
-43.056	-9.4037
-42.785	-9.3499
-42.513	-9.2962
-42.242	-9.2424
-41.971	-9.1886
-41.699	-9.1349
-41.428	-9.0811
-41.157	-9.0273
-40.885	-8.9735
-40.614	-8.9198
-40.343	-8.8660
-40.071	-8.8122
-39.800	-8.7585
-39.529	-8.7047
-39.257	-8.6509
-38.986	-8.5972
-38.715	-8.5434
-38.443	-8.4896
-38.172	-8.4359
-37.901	-8.3821
-37.630	-8.3283
-37.358	-8.2745
-37.087	-8.2208
-36.816	-8.1670
-36.544	-8.1132
-36.273	-8.0595
-36.002	-8.0057
-35.730	-7.9519
-35.459	-7.8982
-35.188	-7.8444
-34.916	-7.7906
-34.645	-7.7368
-34.374	-7.6831
-34.102	-7.6293
-33.831	-7.5755
-33.560	-7.5218
-33.288	-7.4680
-33.017	-7.4142
-32.746	-7.3605
-32.474	-7.3067
-32.203	-7.2529
-31.932	-7.1991
-31.660	-7.1454
-31.389	-7.0916
-31.118	-7.0378
-30.846	-6.9841
-30.575	-6.9303
-30.304	-6.8765
-30.032	-6.8228
-29.761	-6.7690
-29.490	-6.7152
-29.218	-6.6615
-28.947	-6.6077
-28.676	-6.5539
-28.404	-6.5001
-28.133	-6.4464
-27.862	-6.3926
-27.590	-6.3388
-27.319	-6.2851
-27.048	-6.2313
-26.776	-6.1775
-26.505	-6.1238
-26.234	-6.0700
-25.962	-6.0162
-25.691	-5.9624
-25.420	-5.9087
-25.148	-5.8549
-24.877	-5.8011
-24.606	-5.7474
-24.334	-5.6936
-24.063	-5.6398
-23.792	-5.5861
-23.520	-5.5323
-23.249	-5.4785
-22.978	-5.4247
-22.706	-5.3710
-22.435	-5.3172
-22.164	-5.2634
-21.892	-5.2097
-21.621	-5.1559
-21.350	-5.1021
-21.078	-5.0484
-20.807	-4.9946
-20.536	-4.9408
-20.264	-4.8871
-19.993	-4.8333
-19.722	-4.7795
-19.450	-4.7257
-19.179	-4.6720
-18.908	-4.6182
-18.636	-4.5644
-18.365	-4.5107
-18.094	-4.4569
-17.822	-4.4031
-17.551	-4.3494
-17.280	-4.2956
-17.008	-4.2418
-16.737	-4.1880
-16.466	-4.1343
-16.194	-4.0805
-15.923	-4.0267
-15.652	-3.9730
-15.380	-3.9192
-15.109	-3.8654
-14.838	-3.8117
-14.566	-3.7579
-14.295	-3.7041
-14.024	-3.6503
-13.752	-3.5966
-13.481	-3.5428
-13.210	-3.4890
-12.938	-3.4353
-12.669	-3.3815
-12.412	-3.3277
-12.156	-3.2740
-11.899	-3.2202
-11.643	-3.1664
-11.386	-3.1127
-11.130	-3.0589
-10.873	-3.0051
-10.617	-2.9513
-10.361	-2.8976
-10.104	-2.8438
-9.8476	-2.7900
-9.5912	-2.7363
-9.2598	-2.6825
-8.8957	-2.6287
-8.5316	-2.5750
-8.1675	-2.5212
-7.8034	-2.4674
-7.4393	-2.4136
-7.0752	-2.3599
-6.7526	-2.3061
-6.4459	-2.2523
-6.1392	-2.1986
-5.8325	-2.1448
-5.5259	-2.0910
-5.2192	-2.0373
-4.9125	-1.9835
-4.6058	-1.9297
-4.2991	-1.8759
-4.0215	-1.8222
-3.7830	-1.7684
-3.5445	-1.7146
-3.3060	-1.6609
-3.0675	-1.6071
-2.8291	-1.5533
-2.5906	-1.4996
-2.3521	-1.4458
-2.1001	-1.3920
-1.8416	-1.3383
-1.5831	-1.2845
-1.3246	-1.2307
-1.0662	-1.1769
-0.80767	-1.1231
-0.54919	-1.0693
-0.29071	-1.0155
-0.032233	-0.96166
0.22625	-0.90784
0.48473	-0.85402
0.74321	-0.80020
1.0017	-0.74638
1.2602	-0.69256
1.5186	-0.63874
1.7771	-0.58493
2.0356	-0.53111
2.2941	-0.47729
2.5526	-0.42347
2.8110	-0.36965
3.0695	-0.31583
3.3280	-0.26201
3.5865	-0.20819
3.8450	-0.15437
4.1034	-0.10055
4.3619	-0.046729
4.6204	0.0070911
4.8789	0.060911
5.1584	0.11473
5.4437	0.16855
5.7290	0.22237
6.0143	0.27619
6.2995	0.33001
6.5848	0.38383
6.8701	0.43765
7.1554	0.49147
7.4407	0.54529
7.7260	0.59911
8.0113	0.65293
8.2966	0.70675
8.5819	0.76057
8.8672	0.81439
9.1525	0.86821
9.4377	0.92203
9.7230	0.97585
10.008	1.0297
10.294	1.0835
10.579	1.1373
10.852	1.1911
11.119	1.2449
11.386	1.2988
11.653	1.3526
11.920	1.4064
12.187	1.4602
12.454	1.5140
12.721	1.5679
12.988	1.6217
13.255	1.6755
13.522	1.7293
13.789	1.7831
14.056	1.8370
14.323	1.8908
14.590	1.9446
14.856	1.9984
15.123	2.0522
15.390	2.1061
15.657	2.1599
15.924	2.2137
16.191	2.2675
16.458	2.3213
16.725	2.3750
16.992	2.4287
17.259	2.4824
17.526	2.5361
17.842	2.5898
18.273	2.6434
18.705	2.6971
19.137	2.7508
19.568	2.8045
19.871	2.8582
20.104	2.9119
20.337	2.9656
20.570	3.0193
20.803	3.0730
21.036	3.1267
21.269	3.1804
21.502	3.2341
21.735	3.2878
21.968	3.3415
22.200	3.3952
22.433	3.4489
22.666	3.5026
22.899	3.5563
23.132	3.6100
23.365	3.6637
23.598	3.7174
23.831	3.7711
24.064	3.8248
24.297	3.8785
24.530	3.9322
24.792	3.9859
25.066	4.0409
25.340	4.0960
25.615	4.1510
25.889	4.2049
26.163	4.2587
26.437	4.3124
26.711	4.3662
26.985	4.4199
27.259	4.4737
27.560	4.5274
27.875	4.5812
28.190	4.6349
28.505	4.6887
28.820	4.7424
29.135	4.7962
29.450	4.8499
29.765	4.9037
30.080	4.9574
30.395	5.0112
30.711	5.0649
31.026	5.1187
31.341	5.1724
31.625	5.2262
31.877	5.2799
32.128	5.3337
32.380	5.3874
32.631	5.4412
32.883	5.4949
33.135	5.5487
33.386	5.6024
33.638	5.6562
33.889	5.7099
34.141	5.7637
34.393	5.8174
34.644	5.8712
34.896	5.9249
35.147	5.9787
35.399	6.0324
35.651	6.0862
35.902	6.1399
36.154	6.1937
36.405	6.2474
36.657	6.3012
36.908	6.3549
37.160	6.4087
37.412	6.4624
37.663	6.5162
37.915	6.5699
38.378	6.6237
38.860	6.6774
39.342	6.7312
39.825	6.7849
40.248	6.8387
40.507	6.8924
40.765	6.9462
41.024	6.9999
41.283	7.0509
41.542	7.0976
41.800	7.1514
42.059	7.2159
42.318	7.2719
42.577	7.3252
42.835	7.3786
43.094	7.4319
43.353	7.4853
43.611	7.5386
43.870	7.5919
44.129	7.6453
44.388	7.6986
44.646	7.7520
44.905	7.8053
45.164	7.8587
45.423	7.9120
45.681	7.9654
45.940	8.0187
46.199	8.0724
46.457	8.1262
46.716	8.1799
46.975	8.2337
47.234	8.2875
47.492	8.3412
47.751	8.3950
48.187	8.4488
48.662	8.5025
49.137	8.5563
49.611	8.6100
50.086	8.6638
50.560	8.7176
51.035	8.7713
51.509	8.8251
51.984	8.8789
52.458	8.9326
52.933	8.9864
53.343	9.0402
53.498	9.0939
53.652	9.1477
53.807	9.2015
53.961	9.2552
54.116	9.3090
54.270	9.3627
54.425	9.4165
54.579	9.4703
54.734	9.5240
54.888	9.5778
55.043	9.6316
55.198	9.6853
55.354	9.7391
55.582	9.7929
55.811	9.8466
56.039	9.9004
56.267	9.9542
56.496	9.9974
55.603	9.9857
53.980	9.9155
52.358	9.8664
50.735	9.8173
50.076	9.7681
49.771	9.7190
49.465	9.6699
49.160	9.6179
48.855	9.5642
48.550	9.5104
48.245	9.4567
47.940	9.4029
47.635	9.3492
47.330	9.2954
47.024	9.2417
46.719	9.1880
46.414	9.1342
46.109	9.0805
45.804	9.0267
45.499	8.9730
45.194	8.9193
44.889	8.8655
44.583	8.8118
44.278	8.7580
43.973	8.7043
43.668	8.6505
43.363	8.5968
43.058	8.5431
42.753	8.4893
42.448	8.4356
42.142	8.3818
41.837	8.3281
41.532	8.2744
41.227	8.2206
40.922	8.1669
40.617	8.1131
40.312	8.0594
40.007	8.0056
39.701	7.9519
39.396	7.8982
39.091	7.8444
38.786	7.7907
38.481	7.7369
38.176	7.6832
37.871	7.6295
37.566	7.5757
37.260	7.5220
36.955	7.4682
36.650	7.4145
36.345	7.3607
36.040	7.3070
35.735	7.2533
35.430	7.1995
35.125	7.1458
34.819	7.0920
34.514	7.0383
34.209	6.9846
33.904	6.9308
33.599	6.8771
33.294	6.8233
32.989	6.7696
32.683	6.7158
32.378	6.6621
32.073	6.6084
31.768	6.5546
31.463	6.5009
31.158	6.4471
30.853	6.3934
30.548	6.3397
30.253	6.2859
29.964	6.2322
29.674	6.1784
29.385	6.1247
29.096	6.0709
28.807	6.0172
28.517	5.9635
28.228	5.9097
27.939	5.8560
27.650	5.8022
27.361	5.7485
27.071	5.6948
26.782	5.6410
26.493	5.5873
26.204	5.5335
25.914	5.4798
25.625	5.4260
25.336	5.3723
25.047	5.3186
24.758	5.2648
24.468	5.2111
24.179	5.1573
23.890	5.1036
23.601	5.0499
23.312	4.9961
23.022	4.9424
22.733	4.8886
22.444	4.8349
22.155	4.7811
21.865	4.7274
21.576	4.6737
21.287	4.6199
20.998	4.5662
20.709	4.5124
20.419	4.4587
20.130	4.4050
19.841	4.3512
19.552	4.2975
19.262	4.2437
18.973	4.1900
18.684	4.1362
18.395	4.0825
18.106	4.0288
17.816	3.9750
17.527	3.9213
17.238	3.8675
16.949	3.8138
16.659	3.7601
16.370	3.7063
16.081	3.6526
15.792	3.5988
15.503	3.5457
15.213	3.4933
14.924	3.4408
14.635	3.3884
14.346	3.3351
14.057	3.2813
13.767	3.2275
13.478	3.1737
13.189	3.1200
12.900	3.0662
12.610	3.0124
12.321	2.9586
12.033	2.9049
11.754	2.8511
11.475	2.7973
11.195	2.7436
10.916	2.6898
10.637	2.6360
10.358	2.5822
10.079	2.5285
9.7994	2.4747
9.5201	2.4209
9.2409	2.3671
8.9617	2.3134
8.6825	2.2596
8.4033	2.2058
8.1240	2.1521
7.8448	2.0983
7.5656	2.0445
7.2864	1.9907
7.0072	1.9370
6.7279	1.8832
6.5927	1.8294
6.5073	1.7756
6.4218	1.7219
6.1296	1.6681
5.7233	1.6143
5.3170	1.5606
4.9107	1.5068
4.5044	1.4530
4.0981	1.3992
3.6918	1.3455
3.2855	1.2917
2.9969	1.2379
2.7220	1.1842
2.4471	1.1304
2.1722	1.0766
1.8972	1.0228
1.6223	0.96906
1.3474	0.91529
1.0725	0.86152
0.79756	0.80775
0.52264	0.75398
0.24772	0.70020
-0.027198	0.64643
-0.30212	0.59266
-0.57704	0.53889
-0.85196	0.48512
-1.1269	0.43134
-1.4018	0.37757
-1.6767	0.32380
-1.9516	0.27003
-2.2266	0.21626
-2.5015	0.16248
-2.7764	0.10871
-3.0513	0.054940
-3.3262	0.0011675
-3.6011	-0.052604
-3.8761	-0.10638
-4.1510	-0.16015
-4.4259	-0.21392
-4.7008	-0.26769
-4.9757	-0.32146
-5.2507	-0.37524
-5.5256	-0.42901
-5.8005	-0.48278
-6.0754	-0.53655
-6.3503	-0.59032
-6.6253	-0.64410
-6.9002	-0.69787
-7.1751	-0.75164
-7.4500	-0.80541
-7.7249	-0.85918
-7.9999	-0.91296
-8.2748	-0.96673
-8.5497	-1.0205
-8.8246	-1.0743
-9.0995	-1.1280
-9.3744	-1.1818
-9.6494	-1.2356
-9.9243	-1.2894
-10.199	-1.3431
-10.474	-1.3969
-10.749	-1.4507
-11.024	-1.5044
-11.299	-1.5582
-11.574	-1.6120
-11.849	-1.6658
-12.124	-1.7195
-12.399	-1.7733
-12.673	-1.8271
-12.948	-1.8809
-13.223	-1.9346
-13.498	-1.9884
-13.773	-2.0422
-14.048	-2.0959
-14.323	-2.1497
-14.598	-2.2035
-14.873	-2.2573
-15.148	-2.3110
-15.423	-2.3648
-15.698	-2.4186
-15.973	-2.4723
-16.247	-2.5261
-16.522	-2.5799
-16.797	-2.6337
-17.072	-2.6874
-17.367	-2.7412
-17.681	-2.7950
-17.996	-2.8487
-18.310	-2.9025
-18.624	-2.9563
-18.938	-3.0101
-19.242	-3.0638
-19.523	-3.1176
-19.805	-3.1714
-20.087	-3.2252
-20.368	-3.2789
-20.650	-3.3327
-20.932	-3.3865
-21.213	-3.4402
-21.495	-3.4940
-21.777	-3.5478
-22.058	-3.6016
-22.340	-3.6553
-22.622	-3.7092
-22.900	-3.7630
-23.161	-3.8168
-23.423	-3.8706
-23.684	-3.9244
-23.945	-3.9782
-24.206	-4.0320
-24.467	-4.0859
-24.728	-4.1397
-24.989	-4.1935
-25.250	-4.2473
-25.511	-4.3011
-25.772	-4.3549
-26.033	-4.4087
-26.294	-4.4626
-26.555	-4.5164
-26.816	-4.5702
-27.080	-4.6240
-27.345	-4.6778
-27.610	-4.7316
-27.875	-4.7854
-28.140	-4.8393
-28.405	-4.8931
-28.671	-4.9469
-28.936	-5.0007
-29.102	-5.0545
-29.029	-5.1083
-29.784	-5.1621
-30.526	-5.2159
-30.799	-5.2698
-31.073	-5.3236
-31.346	-5.3774
-31.619	-5.4312
-31.892	-5.4850
-32.165	-5.5388
-32.438	-5.5926
-32.711	-5.6465
-32.984	-5.7003
-33.258	-5.7541
-33.531	-5.8079
-33.804	-5.8617
-34.077	-5.9155
-34.350	-5.9693
-34.623	-6.0232
-34.896	-6.0766
-35.169	-6.1297
-35.442	-6.1829
-35.716	-6.2360
-35.989	-6.2891
-36.262	-6.3423
-36.535	-6.3961
-36.808	-6.4498
-37.081	-6.5036
-37.354	-6.5573
-37.627	-6.6111
-37.901	-6.6648
-38.174	-6.7186
-38.447	-6.7723
-38.720	-6.8261
-38.993	-6.8798
-39.266	-6.9336
-39.539	-6.9873
-39.812	-7.0411
-40.085	-7.0948
-40.359	-7.1486
-40.632	-7.2023
-40.905	-7.2561
-41.178	-7.3098
-41.451	-7.3636
-41.724	-7.4173
-41.997	-7.4711
-42.270	-7.5248
-42.544	-7.5786
-42.817	-7.6323
-43.090	-7.6861
-43.363	-7.7398
-43.645	-7.7936
-43.931	-7.8473
-44.216	-7.9011
-44.502	-7.9548
-44.787	-8.0086
-45.073	-8.0623
-45.358	-8.1161
-45.644	-8.1698
-45.929	-8.2236
-46.215	-8.2773
-46.500	-8.3311
-46.786	-8.3849
-47.071	-8.4387
-47.357	-8.4925
-47.642	-8.5464
-47.928	-8.6002
-48.213	-8.6540
-48.499	-8.7078
-48.784	-8.7617
-49.070	-8.8155
-49.355	-8.8693
-49.641	-8.9231
-49.926	-8.9770
-50.212	-9.0308
-50.497	-9.0846
-50.783	-9.1384
-51.068	-9.1923
-51.354	-9.2461
-51.639	-9.2999
-51.925	-9.3537
-52.210	-9.4076
-52.496	-9.4614
-52.781	-9.5152
-53.067	-9.5690
-53.352	-9.6229
-53.638	-9.6767
-53.923	-9.7305
-54.209	-9.7843
-54.494	-9.8382
-54.780	-9.8920
-55.065	-9.9458
-55.351	-9.9996
-55.022	-9.9994
-50.536	-9.9359
-47.666	-9.8800
-46.596	-9.8337
-45.813	-9.7860
-45.801	-9.7604