File: text_data/C1.txt
Load (N)	Extension (mm)

-2.6020	-1.4432
-2.5937	-1.4431
-2.5853	-1.4431
-2.5770	-1.4431
-2.5687	-1.4430
-2.5603	-1.4416
-1.2842	-1.3405
-0.55998	-1.1984
0.16427	-1.0430
0.88851	-0.89026
1.6128	-0.73534
2.3370	-0.58041
3.0612	-0.42589
3.7855	-0.27176
4.5097	-0.11758
5.2340	0.033240
4.4978	0.015417
5.2045	0.038639
4.0597	-0.013620
1.8671	-0.15639
1.0595	-0.30458
0.25189	-0.45516
-0.55572	-0.60899
-1.3633	-0.75899
-2.1709	-0.91155
-2.9786	-1.0641
-3.7862	-1.2167
-4.5938	-1.3693
-5.4014	-1.5262
-6.2090	-1.6818
-7.0166	-1.8353
-7.8242	-1.9888
-8.6318	-2.1422
-9.4395	-2.2957
-10.247	-2.4492
-11.055	-2.6027
-11.862	-2.7562
-12.670	-2.9096
-13.478	-3.0631
-14.285	-3.2166
-15.093	-3.3701
-15.900	-3.5235
-16.708	-3.6770
-17.516	-3.8305
-18.323	-3.9840
-19.131	-4.1375
-19.938	-4.2909
-20.730	-4.4444
-21.517	-4.5979
-22.303	-4.7514
-23.089	-4.9048
-23.875	-5.0583
-24.661	-5.2118
-25.447	-5.3653
-26.234	-5.5188
-27.020	-5.6722
-27.806	-5.8257
-28.592	-5.9792
-29.378	-6.1327
-30.164	-6.2856
-30.950	-6.4375
-31.737	-6.5908
-32.523	-6.7440
-33.309	-6.8973
-34.095	-7.0506
-34.881	-7.2039
-35.667	-7.3571
-36.504	-7.5104
-37.347	-7.6637
-38.190	-7.8169
-39.024	-7.9702
-39.857	-8.1235
-40.691	-8.2767
-41.468	-8.4301
-41.769	-8.5835
-42.557	-8.7369
-43.345	-8.8902
-44.133	-9.0436
-44.921	-9.1970
-45.709	-9.3504
-46.497	-9.5037
-47.285	-9.6571
-48.073	-9.8105
-48.861	-9.9638
-49.649	-10.117
-50.437	-10.271
-51.225	-10.424
-52.013	-10.577
-52.801	-10.731
-53.589	-10.884
-54.377	-11.037
-55.165	-11.191
-55.953	-11.344
-56.742	-11.498
-57.530	-11.651
-58.338	-11.805
-59.158	-11.958
-59.978	-12.112
-60.798	-12.265
-61.618	-12.418
-62.438	-12.570
-63.248	-12.723
-63.985	-12.877
-64.723	-13.030
-65.461	-13.183
-66.198	-13.337
-66.936	-13.490
-67.744	-13.643
-68.584	-13.797
-69.425	-13.950
-70.265	-14.103
-71.105	-14.257
-71.945	-14.410
-72.786	-14.563
-73.626	-14.717
-74.466	-14.870
-75.307	-15.023
-76.147	-15.177
-76.987	-15.330
-77.827	-15.483
-78.668	-15.636
-79.454	-15.790
-80.199	-15.943
-80.944	-16.096
-81.689	-16.250
-82.123	-16.403
-83.639	-16.556
-84.192	-16.710
-85.689	-16.863
-86.120	-17.016
-87.164	-17.170
-88.209	-17.323
-89.253	-17.476
-90.297	-17.629
-91.341	-17.783
-92.385	-17.936
-93.429	-18.089
-94.474	-18.243
-95.518	-18.396
-96.562	-18.549
-97.606	-18.703
-98.650	-18.856
-99.694	-19.009
-100.74	-19.163
-101.78	-19.316
-102.83	-19.469
-103.87	-19.622
-104.92	-19.776
-106.12	-19.929
-107.57	-20.082
-109.01	-20.236
-110.22	-20.389
-111.41	-20.542
-112.61	-20.696
-113.80	-20.849
-114.99	-21.002
-116.18	-21.156
-117.38	-21.309
-118.71	-21.462
-120.31	-21.615
-121.90	-21.769
-123.50	-21.922
-125.10	-22.075
-126.72	-22.229
-128.47	-22.382
-130.22	-22.535
-131.96	-22.688
-133.71	-22.841
-135.46	-22.994
-137.21	-23.147
-138.95	-23.300
-140.70	-23.453
-142.45	-23.607
-144.20	-23.760
-145.95	-23.913
-155.89	-24.066
-180.69	-24.219
-210.03	-24.372
-234.94	-24.525
-259.84	-24.677
-305.73	-24.828
-380.92	-24.980
-463.07	-25.131
-527.28	-25.213
-527.23	-25.218
-500.70	-25.162
-383.21	-25.016
-293.15	-24.866
-226.21	-24.717
-178.57	-24.568
-163.89	-24.418
-149.20	-24.267
-134.52	-24.114
-119.84	-23.961
-105.15	-23.807
-103.53	-23.654
-102.81	-23.501
-102.09	-23.348
-101.37	-23.194
-100.64	-23.041
-99.919	-22.888
-99.196	-22.734
-98.473	-22.581
-97.750	-22.428
-97.027	-22.275
-96.304	-22.121
-95.581	-21.968
-94.858	-21.815
-94.135	-21.661
-93.412	-21.508
-92.689	-21.355
-91.966	-21.202
-91.243	-21.048
-90.520	-20.895
-89.797	-20.742
-89.074	-20.588
-88.351	-20.435
-87.628	-20.282
-86.905	-20.129
-86.182	-19.975
-85.459	-19.822
-84.736	-19.669
-84.013	-19.515
-83.290	-19.362
-82.567	-19.209
-81.844	-19.056
-81.121	-18.902
-80.398	-18.749
-79.675	-18.596
-82.805	-18.442
-81.931	-18.289
-81.056	-18.136
-80.181	-17.982
-79.306	-17.828
-78.431	-17.674
-77.556	-17.521
-76.419	-17.368
-75.396	-17.214
-74.642	-17.061
-73.888	-16.908
-73.134	-16.754
-72.381	-16.601
-71.627	-16.448
-70.873	-16.294
-70.119	-16.141
-69.365	-15.988
-68.612	-15.834
-67.858	-15.681
-67.104	-15.528
-66.350	-15.374
-65.596	-15.221
-64.843	-15.068
-64.089	-14.915
-63.335	-14.761
-62.581	-14.608
-61.827	-14.455
-61.074	-14.301
-60.367	-14.148
-59.678	-13.995
-58.990	-13.841
-58.301	-13.688
-57.612	-13.535
-56.924	-13.381
-56.235	-13.228
-55.546	-13.075
-54.858	-12.921
-54.169	-12.768
-53.480	-12.615
-52.792	-12.461
-52.101	-12.308
-51.406	-12.155
-50.711	-12.001
-50.016	-11.848
-49.321	-11.695
-48.626	-11.541
-47.858	-11.388
-46.871	-11.235
-45.997	-11.078
-45.337	-10.926
-44.678	-10.774
-44.018	-10.621
-43.358	-10.468
-42.699	-10.314
-41.823	-10.161
-40.758	-10.008
-40.147	-9.8544
-39.536	-9.7010
-38.926	-9.5477
-38.315	-9.3944
-37.704	-9.2411
-36.941	-9.0878
-36.150	-8.9344
-35.358	-8.7811
-34.567	-8.6278
-33.786	-8.4745
-33.036	-8.3212
-32.286	-8.1678
-31.537	-8.0145
-30.787	-7.8612
-30.037	-7.7079
-29.288	-7.5545
-28.538	-7.4012
-27.788	-7.2479
-27.023	-7.0946
-26.255	-6.9413
-25.487	-6.7879
-24.719	-6.6346
-23.951	-6.4813
-23.183	-6.3280
-22.415	-6.1746
-21.887	-6.0199
-21.353	-5.8665
-20.682	-5.7132
-20.010	-5.5599
-19.338	-5.4066
-18.667	-5.2533
-17.995	-5.1000
-17.323	-4.9467
-16.624	-4.7934
-15.866	-4.6401
-15.108	-4.4868
-14.350	-4.3335
-13.592	-4.1801
-12.834	-4.0268
-12.132	-3.8735
-11.436	-3.7202
-10.741	-3.5669
-10.046	-3.4136
-9.3512	-3.2603
-8.6560	-3.1070
-7.9609	-2.9537
-7.2658	-2.8004
-6.5707	-2.6471
-5.8756	-2.4938
-5.1805	-2.3404
-4.4854	-2.1871
-3.7903	-2.0338
-3.0951	-1.8805
-2.4000	-1.7273
-1.7049	-1.5742
-1.0098	-1.4210
-0.31470	-1.2679
0.38041	-1.1147
1.1167	-0.96160
1.8590	-0.80852
2.6013	-0.65543
3.3437	-0.50234
4.0860	-0.34925
4.8283	-0.19617
5.5706	-0.043081
6.3130	0.11001
7.0553	0.26309
7.7976	0.41618
8.5400	0.56927
9.2823	0.72248
10.025	0.87584
10.767	1.0292
11.509	1.1826
12.252	1.3359
12.994	1.4893
13.736	1.6427
14.479	1.7960
15.221	1.9494
15.963	2.1027
16.706	2.2561
17.448	2.4095
18.190	2.5628
18.940	2.7162
19.731	2.8696
20.522	3.0229
21.314	3.1763
22.105	3.3296
22.896	3.4830
23.687	3.6364
24.479	3.7897
25.270	3.9431
26.061	4.0965
26.852	4.2498
27.644	4.4032
28.421	4.5565
29.142	4.7099
29.863	4.8633
30.583	5.0166
31.304	5.1700
32.025	5.3234
32.745	5.4767
33.466	5.6301
34.187	5.7835
34.907	5.9368
35.628	6.0902
36.370	6.2435
37.464	6.3969
38.558	6.5503
39.399	6.7036
40.078	6.8570
40.757	6.9844
41.437	7.1716
42.251	7.3232
43.098	7.4754
43.944	7.6276
44.791	7.7798
45.637	7.9320
46.484	8.0842
47.331	8.2364
48.177	8.3889
49.051	8.5422
49.970	8.6955
50.888	8.8488
51.741	9.0021
52.560	9.1554
53.380	9.3087
54.200	9.4620
55.020	9.6154
55.840	9.7687
56.660	9.9220
57.480	10.075
58.300	10.229
59.120	10.382
60.073	10.535
61.110	10.689
62.146	10.842
63.149	10.995
63.793	11.154
64.436	11.307
65.080	11.460
65.724	11.614
66.368	11.767
67.011	11.920
67.655	12.073
68.635	12.227
69.981	12.380
71.326	12.533
72.672	12.687
74.018	12.840
75.325	12.993
75.799	13.147
76.274	13.300
76.748	13.453
77.222	13.607
77.697	13.760
78.040	13.913
78.686	14.066
79.837	14.220
81.003	14.373
82.357	14.526
83.711	14.680
85.065	14.833
86.419	14.986
87.774	15.140
88.871	15.293
89.541	15.446
90.211	15.600
90.881	15.753
91.551	15.906
92.221	16.059
92.890	16.213
93.560	16.366
94.434	16.519
96.012	16.672
97.591	16.825
99.170	16.978
100.75	17.131
101.86	17.284
102.67	17.437
103.48	17.590
104.29	17.743
105.10	17.896
105.91	18.049
106.72	18.203
107.53	18.356
108.34	18.509
109.15	18.662
110.33	18.816
111.59	18.969
112.85	19.122
114.12	19.276
115.38	19.429
116.34	19.582
117.14	19.735
117.95	19.889
118.76	20.042
119.56	20.195
120.37	20.349
121.18	20.502
121.98	20.655
123.48	20.808
125.62	20.962
127.77	21.115
128.85	21.268
129.66	21.422
130.46	21.575
131.27	21.728
132.08	21.881
132.88	22.035
133.69	22.188
134.50	22.341
135.30	22.495
136.11	22.648
136.92	22.801
138.74	22.954
142.18	23.108
143.77	23.261
144.76	23.415
145.75	23.569
146.73	23.722
147.72	23.876
148.71	24.029
149.70	24.182
150.69	24.336
151.68	24.489
152.66	24.642
153.65	24.796
154.64	24.949
157.05	25.102
159.81	25.255
162.57	25.409
164.40	25.562
165.45	25.715
166.49	25.869
167.53	26.022
168.58	26.175
169.62	26.329
170.66	26.482
171.70	26.635
172.75	26.788
173.79	26.942
175.30	27.095
178.50	27.248
181.69	27.402
184.89	27.555
187.21	27.709
188.30	27.862
189.38	28.016
190.46	28.169
191.55	28.323
192.63	28.476
193.72	28.630
194.80	28.783
195.89	28.937
196.97	29.090
199.98	29.243
204.09	29.397
208.21	29.550
212.08	29.704
213.77	29.856
215.47	30.009
217.16	30.162
218.86	30.315
220.55	30.468
222.25	30.622
223.94	30.775
225.64	30.928
227.43	31.081
229.99	31.235
235.53	31.388
241.06	31.541
246.59	31.694
250.75	31.847
253.62	32.000
256.49	32.154
259.37	32.307
262.24	32.460
265.11	32.613
267.98	32.766
270.86	32.919
273.87	33.072
278.24	33.225
283.56	33.379
292.76	33.532
300.70	33.685
305.58	33.838
310.46	33.991
315.34	34.144
320.22	34.297
325.10	34.450
329.98	34.603
334.86	34.756
340.81	34.909
348.25	35.063
355.69	35.216
364.62	35.369
375.53	35.522
386.44	35.675
396.53	35.828
406.59	35.981
416.66	36.134
426.72	36.287
437.24	36.440
452.22	36.593
467.21	36.746
482.20	36.899
495.78	36.966
429.01	36.800
392.94	36.652
356.87	36.504
331.18	36.351
316.56	36.197
301.94	36.044
287.32	35.891
272.70	35.737
261.26	35.584
256.55	35.431
251.83	35.277
247.11	35.124
242.40	34.971
237.68	34.817
232.97	34.664
228.25	34.511
223.53	34.357
218.82	34.204
215.95	34.051
213.52	33.897
211.08	33.744
208.65	33.590
206.21	33.437
203.77	33.284
201.34	33.130
198.90	32.977
196.46	32.824
194.03	32.670
191.82	32.517
189.85	32.364
187.89	32.210
185.92	32.057
183.95	31.904
181.98	31.750
180.42	31.597
178.97	31.444
177.53	31.290
176.08	31.137
174.63	30.984
173.18	30.830
171.73	30.677
170.28	30.524
168.83	30.371
167.39	30.217
165.94	30.064
164.54	29.911
163.22	29.757
161.89	29.604
160.57	29.451
159.25	29.297
157.93	29.144
156.62	28.991
155.42	28.837
154.22	28.684
153.02	28.531
151.82	28.377
150.62	28.224
149.42	28.071
148.22	27.917
147.02	27.764
145.82	27.611
144.62	27.457
143.42	27.304
142.37	27.151
141.39	26.998
140.41	26.844
140.08	26.691
138.87	26.538
137.69	26.384
136.51	26.231
135.32	26.078
134.14	25.924
132.95	25.771
131.79	25.618
130.80	25.464
129.81	25.311
128.81	25.158
127.82	25.005
126.83	24.851
125.83	24.698
124.84	24.544
123.85	24.391
122.86	24.237
121.86	24.083
120.87	23.929
119.88	23.775
118.88	23.622
117.89	23.468
116.90	23.315
115.90	23.162
114.91	23.009
113.92	22.855
112.92	22.702
111.93	22.549
110.94	22.395
109.95	22.242
108.95	22.089
107.96	21.935
106.97	21.782
105.97	21.629
104.98	21.475
103.99	21.322
102.99	21.169
102.00	21.015
101.01	20.862
100.02	20.709
99.022	20.556
98.162	20.403
97.357	20.250
96.526	20.097
95.619	19.944
94.713	19.791
93.806	19.638
92.900	19.485
91.993	19.332
91.087	19.178
90.180	19.025
89.274	18.872
88.367	18.719
87.461	18.566
86.554	18.413
85.648	18.260
84.741	18.107
83.851	17.954
82.986	17.800
82.121	17.647
81.256	17.494
80.390	17.340
79.525	17.187
78.660	17.033
77.786	16.880
76.894	16.727
76.002	16.573
75.110	16.420
74.218	16.266
73.326	16.113
72.434	15.959
71.542	15.805
71.045	15.651
69.169	15.498
68.278	15.344
67.387	15.190
66.496	15.036
65.605	14.883
64.714	14.730
63.823	14.577
62.932	14.424
62.041	14.271
61.150	14.117
60.258	13.964
59.367	13.811
58.476	13.658
57.585	13.505
56.694	13.352
55.803	13.199
54.912	13.045
54.021	12.892
53.130	12.738
52.239	12.585
51.348	12.431
50.457	12.278
49.566	12.124
48.675	11.971
47.784	11.817
46.893	11.664
46.002	11.510
45.110	11.357
44.219	11.203
43.328	11.050
42.437	10.896
41.546	10.743
40.655	10.589
39.764	10.436
38.873	10.282
37.982	10.129
37.091	9.9753
36.200	9.8218
35.309	9.6683
34.418	9.5149
33.527	9.3614
32.636	9.2079
31.745	9.0544
30.854	8.9009
29.962	8.7475
29.071	8.5940
28.180	8.4405
27.289	8.2870
26.398	8.1335
25.507	7.9801
24.616	7.8266
23.725	7.6731
22.834	7.5214
21.943	7.3692
21.058	7.2159
20.187	7.0627
19.316	6.9094
18.445	6.7561
17.575	6.6028
16.704	6.4495
15.833	6.2963
14.962	6.1430
14.091	5.9897
13.220	5.8364
12.349	5.6831
11.478	5.5299
10.608	5.3766
9.7366	5.2233
8.8658	5.0700
7.9949	4.9167
7.1240	4.7634
6.2531	4.6100
5.4295	4.4567
4.6832	4.3033
3.9370	4.1500
3.1907	3.9966
2.3763	3.8433
1.5116	3.6899
0.64684	3.5366
-0.21789	3.3833
-1.0826	3.2299
-1.9473	3.0766
-2.8121	2.9232
-3.6768	2.7699
-4.2778	2.6165
-4.9208	2.4632
-5.8183	2.3098
-6.7157	2.1565
-7.6131	2.0031
-8.5105	1.8498
-9.4079	1.6964
-10.305	1.5431
-11.203	1.3898
-12.100	1.2364
-12.998	1.0831
-13.895	0.92971
-14.792	0.77637
-15.690	0.62302
-16.587	0.46967
-17.485	0.31633
-18.382	0.16298
-19.315	0.0096365
-20.329	-0.14371
-21.342	-0.29706
-22.355	-0.45040
-23.368	-0.60375
-24.381	-0.75709
-25.394	-0.91044
-26.408	-1.0638
-27.421	-1.2171
-28.434	-1.3705
-29.024	-1.5238
-29.083	-1.6772
-30.006	-1.8305
-30.928	-1.9839
-31.851	-2.1372
-32.773	-2.2905
-33.696	-2.4438
-34.619	-2.5970
-35.541	-2.7503
-36.464	-2.9035
-37.387	-3.0567
-38.309	-3.2100
-39.232	-3.3632
-40.154	-3.5165
-41.077	-3.6697
-42.000	-3.8230
-42.922	-3.9762
-43.845	-4.1295
-44.768	-4.2827
-45.716	-4.4360
-46.747	-4.5892
-47.777	-4.7426
-48.808	-4.8961
-49.838	-5.0495
-50.869	-5.2030
-51.899	-5.3565
-52.930	-5.5100
-53.961	-5.6635
-54.991	-5.8170
-56.022	-5.9705
-57.052	-6.1240
-58.083	-6.2775
-59.113	-6.4310
-60.144	-6.5845
-61.174	-6.7379
-62.205	-6.8912
-63.236	-7.0444
-64.266	-7.1976
-65.297	-7.3509
-66.327	-7.5041
-67.345	-7.6573
-68.355	-7.8105
-69.365	-7.9638
-70.374	-8.1170
-71.384	-8.2702
-72.394	-8.4235
-73.403	-8.5767
-74.413	-8.7299
-75.422	-8.8831
-76.432	-9.0364
-77.442	-9.1900
-78.451	-9.3447
-79.461	-9.4993
-80.471	-9.6525
-81.480	-9.8058
-82.490	-9.9590
-83.500	-10.112
-84.509	-10.266
-85.519	-10.419
-86.528	-10.572
-87.538	-10.725
-88.548	-10.879
-89.557	-11.032
-90.567	-11.185
-91.577	-11.338
-92.586	-11.492
-93.596	-11.645
-94.662	-11.798
-95.806	-11.951
-96.949	-12.105
-98.092	-12.258
-99.236	-12.411
-100.38	-12.564
-101.52	-12.718
-102.67	-12.871
-103.81	-13.024
-104.95	-13.178
-106.10	-13.331
-107.24	-13.484
-108.38	-13.638
-109.53	-13.791
-110.67	-13.944
-111.81	-14.098
-112.96	-14.251
-114.10	-14.405
-115.24	-14.558
-116.39	-14.711
-117.53	-14.865
-118.67	-15.018
-119.82	-15.172
-120.96	-15.325
-122.10	-15.478
-123.25	-15.632
-124.39	-15.785
-125.53	-15.938
-126.68	-16.092
-127.82	-16.245
-128.96	-16.398
-130.11	-16.551
-131.25	-16.705
-132.39	-16.858
-133.54	-17.011
-134.97	-17.164
-136.42	-17.318
-137.88	-17.471
-139.31	-17.624
-140.74	-17.777
-142.16	-17.931
-143.59	-18.084
-145.01	-18.237
-146.44	-18.390
-147.86	-18.544
-149.29	-18.697
-150.71	-18.850
-150.89	-19.003
-151.04	-19.157
-151.18	-19.310
-153.18	-19.463
-155.22	-19.616
-157.26	-19.770
-159.30	-19.923
-161.34	-20.076
-163.23	-20.230
-164.73	-20.383
-166.23	-20.536
-167.73	-20.689
-169.22	-20.843
-170.72	-20.996
-172.22	-21.149
-173.72	-21.302
-175.22	-21.456
-176.72	-21.609
-178.22	-21.762
-179.72	-21.915
-181.22	-22.069
-182.72	-22.222
-184.68	-22.375
-186.84	-22.528
-189.02	-22.681
-191.24	-22.834
-193.46	-22.988
-195.68	-23.141
-197.90	-23.294
-200.06	-23.447
-201.58	-23.600
-203.59	-23.754
-207.83	-23.907
-212.07	-24.060
-216.30	-24.213
-221.79	-24.366
-237.71	-24.518
-270.15	-24.671
-318.14	-24.823
-381.76	-24.974
-450.51	-25.125
-504.81	-25.153
-363.94	-24.998
-321.41	-24.929