File: text_data/C10 - 10.txt
Load (N)	Extension (mm)

39.888
39.886	3.5098
39.883	3.5098
39.881	3.5098
39.878	3.5098
39.876	3.5098
39.873	3.5098
39.871	3.5098
39.869	3.5098
39.866	3.5098
39.864	3.5098
39.861	3.5098
39.859	3.5098
39.856	3.5098
39.854	3.5079
39.582	3.4854
32.873	3.4346
30.881	3.3883
29.994	3.3383
28.463	3.2862
27.457	3.2315
27.002	3.1767
25.957	3.1216
25.305	3.0653
24.996	3.0091
23.974	2.9529
23.705	2.8967
23.389	2.8405
22.479	2.7843
22.243	2.7280
21.993	2.6718
21.491	2.6157
20.989	2.5597
20.484	2.5037
19.979	2.4477
19.473	2.3917
19.174	2.3356
18.920	2.2796
18.667	2.2236
18.398	2.1676
17.908	2.1116
17.419	2.0556
17.048	1.9996
16.702	1.9436
16.356	1.8876
16.010	1.8317
15.664	1.7769
15.318	1.7221
14.972	1.6662
14.626	1.6100
14.281	1.5538
13.935	1.4977
13.589	1.4419
13.243	1.3862
12.897	1.3304
12.551	1.2747
12.205	1.2190
11.859	1.1632
11.513	1.1075
11.168	1.0517
10.822	0.99600
10.476	0.94026
10.130	0.88452
9.7840	0.82878
9.4381	0.77304
9.0922	0.71730
8.7790	0.66156
8.4708	0.60582
8.1626	0.55008
7.8545	0.49437
7.5463	0.43866
7.2382	0.38294
6.9300	0.32723
6.6218	0.27152
6.3137	0.21580
6.0055	0.16009
5.6973	0.10438
5.3892	0.048666
5.0810	-0.0070467
4.7728	-0.060042
4.9746	-0.090852
5.8777	-0.094769
8.1235	-0.091678
8.6444	-0.088588
8.9129	-0.091297
7.7453	-0.094663
6.7045	-0.098030
5.7313	-0.12204
4.7582	-0.16917
3.7851	-0.21630
3.4172	-0.26480
3.1102	-0.32041
2.8032	-0.37603
2.4962	-0.43164
2.1892	-0.48726
1.8823	-0.54287
1.5753	-0.59849
1.2683	-0.65411
0.96128	-0.70972
0.65429	-0.76534
0.34730	-0.82095
0.040304	-0.87657
-0.26669	-0.93219
-0.57368	-0.98780
-0.88067	-1.0434
-1.1877	-1.0990
-1.4947	-1.1547
-1.8016	-1.2103
-2.1086	-1.2659
-2.4156	-1.3215
-2.7226	-1.3771
-3.0296	-1.4327
-3.3366	-1.4883
-3.6436	-1.5440
-3.9506	-1.5996
-4.2576	-1.6552
-4.5646	-1.7108
-4.8716	-1.7664
-5.1786	-1.8220
-5.4856	-1.8777
-5.7925	-1.9333
-6.0995	-1.9889
-6.4065	-2.0445
-6.7135	-2.1001
-7.0205	-2.1557
-7.3275	-2.2114
-7.6345	-2.2670
-7.9415	-2.3226
-8.2485	-2.3782
-8.5555	-2.4338
-8.8625	-2.4894
-9.1695	-2.5450
-9.4764	-2.6007
-9.7834	-2.6563
-10.090	-2.7119
-10.397	-2.7675
-10.704	-2.8231
-11.011	-2.8787
-11.318	-2.9344
-11.625	-2.9900
-11.932	-3.0456
-12.239	-3.1012
-12.546	-3.1568
-12.853	-3.2124
-13.160	-3.2681
-13.467	-3.3237
-13.774	-3.3793
-14.081	-3.4349
-14.388	-3.4905
-14.695	-3.5461
-15.002	-3.6018
-15.309	-3.6574
-15.616	-3.7130
-15.923	-3.7686
-16.230	-3.8242
-16.537	-3.8798
-16.844	-3.9354
-17.151	-3.9911
-17.458	-4.0467
-17.765	-4.1023
-18.072	-4.1579
-18.379	-4.2135
-18.686	-4.2691
-18.993	-4.3248
-19.300	-4.3804
-19.607	-4.4360
-19.914	-4.4916
-20.221	-4.5473
-20.528	-4.6029
-20.835	-4.6586
-21.142	-4.7142
-21.449	-4.7699
-21.756	-4.8255
-22.063	-4.8812
-22.370	-4.9368
-22.677	-4.9925
-22.984	-5.0481
-23.291	-5.1038
-23.598	-5.1594
-23.905	-5.2151
-24.212	-5.2707
-24.519	-5.3264
-24.826	-5.3820
-25.133	-5.4376
-25.440	-5.4933
-25.747	-5.5489
-26.054	-5.6046
-26.361	-5.6602
-26.668	-5.7159
-26.975	-5.7715
-27.282	-5.8270
-27.589	-5.8825
-27.896	-5.9379
-28.203	-5.9933
-28.510	-6.0487
-28.817	-6.1042
-29.124	-6.1596
-29.431	-6.2150
-29.738	-6.2704
-30.045	-6.3259
-30.352	-6.3815
-30.659	-6.4371
-30.966	-6.4928
-31.273	-6.5484
-31.580	-6.6040
-31.887	-6.6597
-32.194	-6.7153
-32.501	-6.7710
-32.808	-6.8266
-33.115	-6.8823
-33.422	-6.9379
-33.729	-6.9936
-34.036	-7.0492
-34.343	-7.1049
-34.648	-7.1605
-34.952	-7.2161
-35.256	-7.2718
-35.560	-7.3274
-35.864	-7.3831
-36.168	-7.4387
-36.472	-7.4944
-36.775	-7.5500
-37.079	-7.6057
-37.383	-7.6613
-37.687	-7.7169
-37.991	-7.7726
-38.295	-7.8282
-38.599	-7.8839
-38.902	-7.9395
-39.202	-7.9952
-39.502	-8.0508
-39.802	-8.1065
-40.102	-8.1621
-40.402	-8.2178
-40.703	-8.2734
-41.003	-8.3290
-41.303	-8.3847
-41.603	-8.4403
-41.903	-8.4960
-42.204	-8.5516
-42.504	-8.6073
-42.804	-8.6629
-43.104	-8.7186
-43.404	-8.7742
-43.704	-8.8298
-44.005	-8.8855
-44.305	-8.9411
-44.605	-8.9968
-44.905	-9.0524
-45.205	-9.1081
-45.506	-9.1637
-45.806	-9.2194
-46.106	-9.2750
-46.406	-9.3307
-46.706	-9.3863
-47.006	-9.4419
-47.307	-9.4976
-47.607	-9.5532
-47.907	-9.6089
-48.207	-9.6645
-48.507	-9.7202
-48.808	-9.7758
-49.108	-9.8315
-49.408	-9.8871
-49.708	-9.9427
-50.008	-9.9909
-50.234	-10.028
-42.798	-10.017
-37.986	-10.008
-37.432	-10.007
-37.327	-10.006
-37.719	-10.004
-38.110	-9.9943
-34.956	-9.9553
-32.713	-9.9059
-32.221	-9.8527
-31.729	-9.7994
-31.237	-9.7462
-30.745	-9.6929
-30.252	-9.6396
-29.760	-9.5864
-29.268	-9.5331
-28.776	-9.4799
-28.284	-9.4266
-27.792	-9.3710
-27.299	-9.3153
-26.807	-9.2597
-26.315	-9.2040
-25.823	-9.1484
-25.331	-9.0928
-24.838	-9.0371
-24.346	-8.9815
-23.854	-8.9258
-23.362	-8.8702
-22.870	-8.8146
-22.592	-8.7589
-22.380	-8.7033
-22.168	-8.6476
-21.955	-8.5920
-21.743	-8.5363
-21.531	-8.4807
-21.318	-8.4251
-21.106	-8.3694
-20.894	-8.3138
-20.681	-8.2581
-20.469	-8.2025
-20.257	-8.1468
-20.044	-8.0912
-19.832	-8.0356
-19.620	-7.9799
-19.407	-7.9243
-19.195	-7.8686
-18.982	-7.8130
-18.770	-7.7573
-18.558	-7.7017
-18.345	-7.6461
-18.129	-7.5904
-17.834	-7.5348
-17.540	-7.4791
-17.246	-7.4235
-16.952	-7.3679
-16.658	-7.3122
-16.364	-7.2566
-16.070	-7.2009
-15.776	-7.1453
-15.482	-7.0896
-15.187	-7.0340
-14.893	-6.9784
-14.599	-6.9227
-14.305	-6.8671
-14.011	-6.8114
-13.717	-6.7558
-13.423	-6.7001
-13.129	-6.6445
-12.835	-6.5889
-12.540	-6.5332
-12.246	-6.4776
-11.952	-6.4219
-11.658	-6.3663
-11.364	-6.3107
-11.070	-6.2550
-10.776	-6.1994
-10.482	-6.1437
-10.188	-6.0881
-9.8934	-6.0324
-9.5993	-5.9768
-9.3052	-5.9212
-9.0111	-5.8655
-8.7170	-5.8099
-8.4229	-5.7542
-8.1288	-5.6986
-7.8346	-5.6429
-7.5405	-5.5873
-7.2464	-5.5317
-6.9523	-5.4760
-6.6582	-5.4204
-6.3641	-5.3647
-6.0700	-5.3091
-5.7759	-5.2534
-5.4818	-5.1978
-5.1876	-5.1422
-4.8935	-5.0865
-4.5994	-5.0309
-4.3053	-4.9752
-4.0112	-4.9196
-3.7171	-4.8640
-3.4230	-4.8083
-3.1289	-4.7527
-2.8348	-4.6970
-2.5407	-4.6414
-2.2465	-4.5857
-1.9524	-4.5301
-1.6583	-4.4745
-1.3642	-4.4188
-1.0701	-4.3632
-0.77599	-4.3075
-0.48188	-4.2519
-0.18776	-4.1962
0.10635	-4.1406
0.40046	-4.0850
0.69457	-4.0293
0.98868	-3.9737
1.2828	-3.9180
1.5769	-3.8624
1.8710	-3.8067
2.1651	-3.7511
2.4610	-3.6955
2.7591	-3.6398
3.0573	-3.5842
3.3555	-3.5285
3.6536	-3.4729
3.9518	-3.4173
4.2500	-3.3616
4.5481	-3.3060
4.8463	-3.2503
5.1445	-3.1947
5.4426	-3.1390
5.7408	-3.0834
6.0390	-3.0278
6.3371	-2.9721
6.6353	-2.9165
6.9335	-2.8608
7.2316	-2.8052
7.5298	-2.7495
7.8280	-2.6939
8.1261	-2.6383
8.4209	-2.5826
8.7030	-2.5270
8.9850	-2.4713
9.2671	-2.4157
9.5492	-2.3601
9.8313	-2.3044
10.113	-2.2488
10.395	-2.1931
10.678	-2.1375
10.960	-2.0818
11.242	-2.0262
11.524	-1.9706
11.806	-1.9149
12.088	-1.8593
12.370	-1.8036
12.652	-1.7480
12.934	-1.6923
13.216	-1.6367
13.498	-1.5810
13.780	-1.5254
14.062	-1.4697
14.344	-1.4140
14.627	-1.3583
14.909	-1.3027
15.191	-1.2470
15.473	-1.1913
15.755	-1.1357
16.037	-1.0800
16.319	-1.0243
16.601	-0.96863
16.883	-0.91296
17.165	-0.85729
17.447	-0.80162
17.729	-0.74595
18.011	-0.69027
18.294	-0.63460
18.576	-0.57893
18.858	-0.52326
19.140	-0.46758
19.422	-0.41191
19.704	-0.35624
19.986	-0.30057
20.268	-0.24490
20.550	-0.18922
20.832	-0.13355
21.114	-0.077879
21.396	-0.022207
21.678	0.033465
21.961	0.089138
22.243	0.14481
22.525	0.20048
22.807	0.25615
23.089	0.31183
23.371	0.36750
23.653	0.42317
23.935	0.47884
24.217	0.53452
24.499	0.59019
24.781	0.64586
25.094	0.70153
25.413	0.75720
25.732	0.81288
26.051	0.86855
26.370	0.92422
26.690	0.97989
27.009	1.0356
27.328	1.0912
27.647	1.1469
27.967	1.2026
28.286	1.2583
28.605	1.3139
28.924	1.3696
29.243	1.4253
29.563	1.4809
29.882	1.5366
30.201	1.5923
30.520	1.6479
30.839	1.7035
31.159	1.7591
31.494	1.8147
31.841	1.8703
32.187	1.9260
32.534	1.9816
32.880	2.0372
33.227	2.0928
33.573	2.1484
33.920	2.2040
34.266	2.2596
34.613	2.3152
34.959	2.3708
35.306	2.4264
35.652	2.4820
35.999	2.5376
36.345	2.5932
36.692	2.6488
37.038	2.7045
37.421	2.7601
37.863	2.8157
38.304	2.8713
38.746	2.9269
39.187	2.9825
39.629	3.0381
40.070	3.0937
40.512	3.1493
40.954	3.2049
41.395	3.2605
41.837	3.3161
42.278	3.3717
42.720	3.4273
43.044	3.4830
43.306	3.5386
43.568	3.5942
43.830	3.6498
44.091	3.7054
44.353	3.7610
44.615	3.8166
44.877	3.8722
45.139	3.9278
45.401	3.9834
45.663	4.0390
45.925	4.0946
46.187	4.1502
46.448	4.2058
46.710	4.2614
46.972	4.3171
47.234	4.3727
47.496	4.4283
47.758	4.4839
48.020	4.5395
48.282	4.5951
48.544	4.6507
48.805	4.7063
49.067	4.7619
49.329	4.8175
49.591	4.8731
49.853	4.9287
50.115	4.9843
50.377	5.0399
50.639	5.0956
50.901	5.1512
51.163	5.2068
51.424	5.2627
51.686	5.3185
52.068	5.3744
52.455	5.4302
52.842	5.4861
53.228	5.5419
53.615	5.5978
54.002	5.6536
54.389	5.7095
54.775	5.7653
55.162	5.8209
55.549	5.8766
55.935	5.9322
56.322	5.9879
56.709	6.0435
57.095	6.0992
57.315	6.1548
57.475	6.2105
57.634	6.2661
57.794	6.3218
57.954	6.3774
58.114	6.4331
58.274	6.4887
58.434	6.5444
58.593	6.6001
58.753	6.6557
58.913	6.7114
59.073	6.7670
59.235	6.8227
59.672	6.8783
60.109	6.9340
60.547	6.9896
60.984	7.0453
61.421	7.1009
61.858	7.1566
62.295	7.2122
62.732	7.2679
63.170	7.3235
63.607	7.3792
64.044	7.4349
64.481	7.4905
64.918	7.5462
65.355	7.6018
65.793	7.6574
66.230	7.7129
66.667	7.7685
67.104	7.8241
67.541	7.8796
67.816	7.9352
67.954	7.9907
68.092	8.0463
68.230	8.1018
68.368	8.1574
68.506	8.2129
68.644	8.2685
68.782	8.3241
68.920	8.3796
69.058	8.4352
69.196	8.4907
69.334	8.5463
69.473	8.6018
69.611	8.6574
69.749	8.7130
69.887	8.7685
70.025	8.8241
70.163	8.8796
70.540	8.9352
71.095	8.9908
71.649	9.0465
72.203	9.1022
72.758	9.1579
73.312	9.2136
73.866	9.2693
74.421	9.3250
74.975	9.3807
75.529	9.4364
75.943	9.4921
76.330	9.5478
76.717	9.6035
77.104	9.6592
77.491	9.7149
77.879	9.7706
78.266	9.8263
78.653	9.8820
79.040	9.9377
79.254	9.9903
78.058	9.9935
67.260	9.9285
64.500	9.8699
61.843	9.8213
61.309	9.7727
60.776	9.7239
60.243	9.6735
59.710	9.6232
59.177	9.5721
58.644	9.5165
58.111	9.4608
57.578	9.4052
57.045	9.3495
56.512	9.2939
55.979	9.2382
55.446	9.1825
54.912	9.1269
54.379	9.0712
53.846	9.0156
53.313	8.9599
52.780	8.9043
52.247	8.8486
51.714	8.7930
51.181	8.7373
50.648	8.6816
50.115	8.6260
49.582	8.5703
49.138	8.5147
48.823	8.4590
48.508	8.4034
48.193	8.3477
47.879	8.2921
47.564	8.2364
47.249	8.1807
46.935	8.1251
46.620	8.0694
46.305	8.0138
45.990	7.9581
45.676	7.9025
45.361	7.8468
45.046	7.7911
44.732	7.7355
44.417	7.6798
44.102	7.6242
43.788	7.5685
43.473	7.5129
43.158	7.4572
42.843	7.4016
42.529	7.3459
42.214	7.2902
41.899	7.2346
41.585	7.1789
41.270	7.1233
40.955	7.0676
40.640	7.0120
40.326	6.9563
40.011	6.9007
39.696	6.8450
39.382	6.7893
39.067	6.7337
38.752	6.6780
38.437	6.6224
38.123	6.5667
37.808	6.5111
37.493	6.4554
37.179	6.3998
36.864	6.3441
36.549	6.2884
36.235	6.2328
35.920	6.1771
35.605	6.1215
35.290	6.0658
34.976	6.0102
34.661	5.9545
34.346	5.8989
34.032	5.8432
33.717	5.7875
33.402	5.7319
33.087	5.6762
32.773	5.6206
32.458	5.5649
32.143	5.5093
31.829	5.4536
31.514	5.3979
31.199	5.3423
30.884	5.2866
30.570	5.2310
30.255	5.1753
29.940	5.1197
29.626	5.0640
29.311	5.0084
28.996	4.9527
28.682	4.8970
28.367	4.8414
28.052	4.7857
27.737	4.7301
27.423	4.6744
27.108	4.6188
26.793	4.5631
26.479	4.5075
26.164	4.4518
25.849	4.3961
25.534	4.3405
25.220	4.2848
24.905	4.2292
24.590	4.1735
24.276	4.1179
23.961	4.0622
23.646	4.0066
23.331	3.9509
23.017	3.8952
22.702	3.8396
22.387	3.7839
22.073	3.7283
21.758	3.6726
21.443	3.6170
21.129	3.5613
20.814	3.5057
20.499	3.4500
20.184	3.3943
19.870	3.3387
19.555	3.2830
19.240	3.2274
18.926	3.1717
18.611	3.1161
18.296	3.0604
17.981	3.0047
17.667	2.9491
17.352	2.8934
17.037	2.8378
16.723	2.7821
16.408	2.7265
16.093	2.6708
15.779	2.6152
15.464	2.5595
15.149	2.5038
14.834	2.4482
14.520	2.3925
14.205	2.3368
13.890	2.2812
13.576	2.2255
13.261	2.1698
12.946	2.1142
12.631	2.0585
12.317	2.0028
12.002	1.9471
11.687	1.8915
11.373	1.8358
11.058	1.7801
10.743	1.7245
10.428	1.6688
10.114	1.6131
9.7991	1.5574
9.4843	1.5018
9.1696	1.4461
8.8549	1.3904
8.5402	1.3348
8.2269	1.2791
7.9228	1.2234
7.6187	1.1678
7.3145	1.1121
7.0104	1.0564
6.7062	1.0007
6.4021	0.94507
6.0979	0.88940
5.7938	0.83373
5.4896	0.77806
5.1855	0.72239
4.8813	0.66672
4.5772	0.61105
4.2730	0.55538
3.9689	0.49971
3.6647	0.44404
3.3606	0.38837
3.0564	0.33270
2.7523	0.27703
2.4481	0.22136
2.1440	0.16569
1.8398	0.11001
1.5357	0.054344
1.2315	-0.0013264
0.92738	-0.056997
0.62323	-0.11267
0.31908	-0.16834
0.014933	-0.22401
-0.28922	-0.27968
-0.59336	-0.33535
-0.89751	-0.39102
-1.2017	-0.44669
-1.5058	-0.50236
-1.8100	-0.55803
-2.1141	-0.61370
-2.4183	-0.66937
-2.7224	-0.72504
-3.0266	-0.78071
-3.3307	-0.83638
-3.6349	-0.89206
-3.9390	-0.94773
-4.2431	-1.0034
-4.5473	-1.0591
-4.8514	-1.1147
-5.1556	-1.1704
-5.4597	-1.2261
-5.7639	-1.2817
-6.0680	-1.3374
-6.3722	-1.3931
-6.6763	-1.4488
-6.9805	-1.5044
-7.2846	-1.5601
-7.5888	-1.6155
-7.8929	-1.6710
-8.1971	-1.7265
-8.5012	-1.7820
-8.8054	-1.8375
-9.1095	-1.8930
-9.4137	-1.9485
-9.7178	-2.0039
-10.022	-2.0594
-10.326	-2.1149
-10.630	-2.1704
-10.934	-2.2259
-11.239	-2.2815
-11.543	-2.3370
-11.848	-2.3926
-12.155	-2.4482
-12.463	-2.5037
-12.770	-2.5593
-13.077	-2.6149
-13.385	-2.6705
-13.692	-2.7260
-14.000	-2.7816
-14.307	-2.8372
-14.615	-2.8927
-14.922	-2.9483
-15.230	-3.0039
-15.537	-3.0594
-15.845	-3.1150
-16.152	-3.1706
-16.459	-3.2261
-16.767	-3.2817
-17.074	-3.3373
-17.382	-3.3929
-17.689	-3.4484
-17.997	-3.5040
-18.304	-3.5596
-18.612	-3.6151
-18.919	-3.6707
-19.226	-3.7263
-19.534	-3.7818
-19.841	-3.8374
-20.149	-3.8930
-20.456	-3.9485
-20.764	-4.0041
-21.071	-4.0597
-21.379	-4.1152
-21.686	-4.1708
-21.994	-4.2264
-22.301	-4.2821
-22.608	-4.3379
-22.916	-4.3937
-23.223	-4.4496
-23.531	-4.5054
-23.838	-4.5612
-24.146	-4.6170
-24.453	-4.6728
-24.761	-4.7286
-25.068	-4.7845
-25.376	-4.8403
-25.683	-4.8961
-25.990	-4.9519
-26.298	-5.0077
-26.605	-5.0636
-26.913	-5.1194
-27.220	-5.1750
-27.528	-5.2305
-27.835	-5.2861
-28.143	-5.3416
-28.450	-5.3972
-28.757	-5.4527
-29.065	-5.5082
-29.372	-5.5638
-29.680	-5.6193
-29.985	-5.6749
-30.289	-5.7304
-30.594	-5.7860
-30.899	-5.8415
-31.203	-5.8971
-31.508	-5.9526
-31.812	-6.0082
-32.117	-6.0637
-32.422	-6.1193
-32.726	-6.1748
-33.031	-6.2303
-33.335	-6.2859
-33.640	-6.3414
-33.945	-6.3970
-34.249	-6.4525
-34.554	-6.5081
-34.858	-6.5636
-35.163	-6.6192
-35.468	-6.6747
-35.772	-6.7303
-36.077	-6.7860
-36.382	-6.8416
-36.686	-6.8973
-36.991	-6.9530
-37.295	-7.0086
-37.600	-7.0643
-37.905	-7.1200
-38.209	-7.1756
-38.514	-7.2313
-38.818	-7.2870
-39.123	-7.3426
-39.428	-7.3983
-39.732	-7.4540
-40.037	-7.5096
-40.341	-7.5653
-40.646	-7.6210
-40.951	-7.6766
-41.255	-7.7323
-41.560	-7.7880
-41.864	-7.8436
-42.169	-7.8993
-42.474	-7.9550
-42.778	-8.0106
-43.083	-8.0663
-43.387	-8.1220
-43.692	-8.1776
-43.997	-8.2333
-44.301	-8.2890
-44.606	-8.3446
-44.910	-8.4003
-45.215	-8.4560
-45.520	-8.5116
-45.824	-8.5673
-46.129	-8.6230
-46.433	-8.6786
-46.738	-8.7343
-47.043	-8.7900
-47.347	-8.8456
-47.652	-8.9013
-47.956	-8.9570
-48.261	-9.0126
-48.566	-9.0683
-48.870	-9.1240
-49.175	-9.1796
-49.479	-9.2353
-49.784	-9.2910
-50.089	-9.3466
-50.393	-9.4023
-50.698	-9.4580
-51.002	-9.5136
-51.307	-9.5693
-51.612	-9.6250
-51.916	-9.6806
-52.221	-9.7363
-52.526	-9.7920
-52.830	-9.8476
-53.135	-9.9033
-53.439	-9.9685
-53.473	-10.010
-52.653	-9.9771
-34.503	-9.9070
-33.388	-9.8598
-31.087	-9.8127
-30.519	-9.7598