File: text_data/C10.txt
Load (N)	Extension (mm)

39.894	3.5931
39.905	3.5931
39.917	3.5931
39.929	3.5931
39.940	3.5931
39.952	3.5931
32.973	3.5241
28.788	3.3862
26.679	3.2341
24.805	3.0772
22.996	2.9203
21.783	2.7635
20.755	2.6066
19.731	2.4497
18.707	2.2929
17.842	2.1360
17.028	1.9795
15.520	1.8229
14.613	1.6675
13.707	1.5121
12.800	1.3560
11.894	1.1998
10.987	1.0437
10.081	0.88747
9.1744	0.73120
8.2678	0.57492
7.3613	0.41864
6.4548	0.26237
5.5483	0.10697
4.6418	-0.047178
8.3486	-0.091053
7.7319	-0.095954
3.7599	-0.15383
2.5247	-0.29321
1.6473	-0.44514
0.76998	-0.60092
-0.10739	-0.75670
-0.98475	-0.91248
-1.8621	-1.0683
-2.7395	-1.2240
-3.6168	-1.3798
-4.4942	-1.5356
-5.3716	-1.6914
-6.2489	-1.8472
-7.1263	-2.0029
-8.0037	-2.1587
-8.8810	-2.3145
-9.7584	-2.4703
-10.636	-2.6261
-11.513	-2.7819
-12.390	-2.9376
-13.268	-3.0934
-14.145	-3.2492
-15.023	-3.4050
-15.900	-3.5608
-16.777	-3.7165
-17.655	-3.8723
-18.532	-4.0281
-19.409	-4.1839
-20.287	-4.3397
-21.164	-4.4954
-22.041	-4.6512
-22.919	-4.8070
-23.796	-4.9628
-24.674	-5.1186
-25.551	-5.2743
-26.428	-5.4301
-27.306	-5.5859
-28.183	-5.7417
-29.060	-5.8974
-29.938	-6.0530
-30.815	-6.2086
-31.692	-6.3642
-32.570	-6.5198
-33.447	-6.6755
-34.325	-6.8311
-35.202	-6.9867
-36.079	-7.1423
-36.957	-7.2979
-37.834	-7.4535
-38.711	-7.6092
-39.589	-7.7648
-40.466	-7.9204
-41.343	-8.0761
-42.221	-8.2320
-43.098	-8.3878
-43.976	-8.5436
-44.853	-8.6994
-45.730	-8.8552
-46.608	-9.0110
-47.485	-9.1668
-48.362	-9.3227
-47.668	-9.4785
-48.521	-9.6343
-49.373	-9.7901
-50.226	-9.9459
-51.078	-10.102
-51.931	-10.258
-52.783	-10.413
-53.636	-10.569
-54.488	-10.725
-55.341	-10.881
-56.193	-11.037
-57.046	-11.192
-57.898	-11.348
-58.751	-11.504
-59.603	-11.660
-60.456	-11.816
-61.308	-11.971
-62.161	-12.127
-63.014	-12.283
-63.866	-12.439
-64.719	-12.595
-65.571	-12.750
-66.424	-12.906
-67.276	-13.062
-68.129	-13.218
-68.981	-13.374
-69.834	-13.529
-70.749	-13.685
-71.744	-13.841
-72.739	-13.997
-73.733	-14.152
-74.728	-14.308
-75.723	-14.464
-76.717	-14.619
-77.701	-14.775
-78.649	-14.931
-79.597	-15.086
-80.545	-15.242
-81.493	-15.397
-82.441	-15.553
-83.389	-15.709
-84.337	-15.864
-85.285	-16.020
-86.266	-16.175
-87.249	-16.331
-88.232	-16.487
-89.215	-16.642
-90.198	-16.798
-91.181	-16.954
-92.164	-17.109
-93.147	-17.265
-94.130	-17.420
-95.113	-17.576
-96.096	-17.732
-97.056	-17.887
-97.985	-18.043
-98.913	-18.199
-99.842	-18.354
-100.77	-18.510
-101.70	-18.665
-102.63	-18.821
-103.56	-18.977
-104.49	-19.132
-105.41	-19.288
-106.34	-19.444
-107.27	-19.602
-108.20	-19.757
-109.13	-19.913
-110.17	-20.069
-111.23	-20.224
-112.30	-20.380
-113.36	-20.536
-114.42	-20.691
-115.49	-20.847
-116.58	-21.003
-117.72	-21.158
-118.86	-21.314
-120.00	-21.470
-121.13	-21.625
-122.27	-21.781
-123.40	-21.937
-124.48	-22.092
-125.57	-22.248
-126.65	-22.404
-127.73	-22.559
-128.82	-22.714
-129.90	-22.870
-131.73	-23.025
-134.22	-23.181
-139.96	-23.337
-145.92	-23.493
-169.81	-23.648
-215.92	-23.801
-279.01	-23.955
-349.91	-24.109
-423.84	-24.262
-508.93	-24.413
-527.83	-24.450
-521.49	-24.450
-463.11	-24.390
-345.42	-24.241
-240.05	-24.091
-164.07	-23.941
-136.67	-23.789
-125.14	-23.633
-113.61	-23.478
-102.09	-23.322
-90.557	-23.166
-79.028	-23.011
-68.233	-22.855
-67.589	-22.699
-66.945	-22.543
-66.302	-22.388
-65.658	-22.232
-65.014	-22.076
-64.371	-21.921
-63.727	-21.765
-63.083	-21.609
-62.440	-21.454
-61.796	-21.298
-61.153	-21.142
-60.509	-20.987
-59.865	-20.831
-59.222	-20.675
-58.578	-20.519
-57.934	-20.364
-57.291	-20.208
-56.647	-20.052
-71.346	-19.897
-70.673	-19.741
-69.999	-19.585
-69.326	-19.430
-68.652	-19.276
-67.979	-19.121
-67.305	-18.966
-66.632	-18.810
-65.958	-18.654
-65.284	-18.498
-64.611	-18.343
-63.937	-18.187
-61.192	-18.031
-59.682	-17.875
-58.975	-17.719
-58.269	-17.564
-57.562	-17.408
-56.855	-17.252
-56.149	-17.096
-55.442	-16.940
-54.823	-16.785
-54.422	-16.629
-54.021	-16.473
-53.620	-16.317
-53.018	-16.161
-51.884	-16.006
-50.749	-15.850
-49.614	-15.695
-48.479	-15.539
-47.345	-15.383
-46.315	-15.228
-46.037	-15.072
-45.759	-14.916
-45.481	-14.761
-45.204	-14.605
-44.926	-14.449
-44.648	-14.294
-42.873	-14.138
-41.051	-13.982
-39.743	-13.827
-38.831	-13.671
-37.919	-13.515
-37.008	-13.360
-36.096	-13.204
-35.461	-13.048
-35.123	-12.893
-34.785	-12.737
-34.448	-12.581
-34.110	-12.425
-33.409	-12.270
-31.074	-12.114
-30.247	-11.958
-29.421	-11.802
-28.594	-11.647
-27.767	-11.491
-26.941	-11.335
-26.114	-11.179
-25.844	-11.023
-25.629	-10.868
-25.413	-10.712
-25.198	-10.556
-24.982	-10.400
-23.134	-10.245
-20.950	-10.089
-19.471	-9.9331
-18.956	-9.7773
-18.441	-9.6216
-17.927	-9.4658
-17.412	-9.3100
-16.898	-9.1543
-16.429	-8.9985
-16.083	-8.8427
-15.738	-8.6863
-15.392	-8.5298
-13.960	-8.3740
-11.549	-8.2182
-9.3728	-8.0625
-8.9379	-7.9067
-8.5030	-7.7509
-8.0681	-7.5952
-7.6332	-7.4394
-7.1982	-7.2836
-6.7633	-7.1278
-7.3040	-6.9721
-7.8777	-6.8163
-6.7139	-6.6605
-5.1879	-6.5048
-3.6619	-6.3490
-2.1359	-6.1932
-0.60993	-6.0375
0.60127	-5.8809
0.63444	-5.7231
0.66760	-5.5677
0.70077	-5.4123
0.73393	-5.2569
0.76710	-5.1014
0.80026	-4.9460
1.7091	-4.7906
3.4122	-4.6352
5.1154	-4.4798
6.8185	-4.3244
8.5217	-4.1690
9.6077	-4.0136
9.9166	-3.8581
10.225	-3.7026
10.534	-3.5470
10.843	-3.3913
10.688	-3.2356
10.479	-3.0799
11.740	-2.9242
13.475	-2.7685
15.211	-2.6128
16.946	-2.4572
18.388	-2.3015
18.716	-2.1458
19.044	-1.9901
19.373	-1.8344
19.701	-1.6787
20.030	-1.5231
20.365	-1.3674
20.820	-1.2117
21.276	-1.0560
21.731	-0.90031
22.963	-0.73742
24.335	-0.58297
25.707	-0.42853
26.690	-0.27408
27.014	-0.11963
27.339	0.034814
27.664	0.19016
27.988	0.34590
28.420	0.50164
29.112	0.65738
29.804	0.81311
30.496	0.96885
31.802	1.1246
33.619	1.2803
35.230	1.4361
35.545	1.5918
35.861	1.7475
36.176	1.9033
36.492	2.0590
36.807	2.2148
37.123	2.3705
37.439	2.5262
39.033	2.6820
40.743	2.8377
42.454	2.9935
44.165	3.1492
45.363	3.3049
45.686	3.4607
46.009	3.6164
46.333	3.7721
46.656	3.9279
46.979	4.0836
47.303	4.2394
48.095	4.3952
49.104	4.5510
50.113	4.7068
51.123	4.8626
52.132	5.0184
53.009	5.1742
53.866	5.3300
54.723	5.4858
55.579	5.6416
56.475	5.7974
58.060	5.9532
59.644	6.1090
60.132	6.2648
60.516	6.4206
60.901	6.5764
61.286	6.7322
61.671	6.8833
62.056	7.0281
62.441	7.2046
63.234	7.3589
64.578	7.5132
65.922	7.6675
67.266	7.8218
68.610	7.9771
69.954	8.1328
70.762	8.2886
71.116	8.4443
71.469	8.6000
71.823	8.7558
72.177	8.9115
72.531	9.0672
73.022	9.2229
74.492	9.3787
75.962	9.5344
77.433	9.6901
78.903	9.8459
80.322	10.002
80.544	10.157
80.765	10.313
80.987	10.469
81.208	10.625
81.430	10.780
81.651	10.936
83.178	11.092
84.867	11.247
86.556	11.403
88.245	11.559
89.934	11.715
91.233	11.870
91.488	12.026
91.744	12.182
91.999	12.338
92.255	12.493
92.510	12.649
92.766	12.805
93.092	12.961
94.728	13.117
96.363	13.272
97.999	13.428
99.635	13.584
101.27	13.740
102.91	13.895
103.03	14.051
102.99	14.207
102.95	14.363
102.91	14.519
102.87	14.674
104.13	14.830
105.67	14.986
107.28	15.142
109.30	15.297
111.00	15.453
111.84	15.609
112.67	15.765
113.50	15.921
114.33	16.076
115.12	16.232
115.72	16.388
116.32	16.544
116.91	16.700
117.51	16.855
118.11	17.011
119.51	17.167
121.05	17.323
122.60	17.479
124.15	17.635
125.69	17.790
126.48	17.946
127.03	18.102
127.57	18.258
128.12	18.414
128.66	18.569
129.21	18.725
130.75	18.881
132.94	19.037
135.12	19.193
137.11	19.348
137.77	19.504
138.43	19.660
139.09	19.816
139.75	19.972
140.42	20.127
141.08	20.283
141.74	20.439
142.40	20.595
144.04	20.751
145.88	20.906
149.40	21.062
150.54	21.218
151.31	21.374
152.08	21.530
152.86	21.685
153.63	21.841
154.40	21.997
155.17	22.152
155.95	22.308
156.72	22.463
158.45	22.619
161.00	22.774
163.55	22.930
166.10	23.085
168.66	23.241
169.06	23.396
169.44	23.552
169.82	23.708
170.20	23.864
170.59	24.020
170.97	24.175
172.02	24.331
174.61	24.487
177.21	24.643
179.81	24.799
182.41	24.955
185.01	25.110
186.10	25.266
186.50	25.422
186.91	25.578
187.31	25.733
187.71	25.889
188.11	26.045
188.52	26.201
188.92	26.357
191.63	26.512
194.51	26.668
197.39	26.824
200.27	26.980
203.16	27.135
205.95	27.291
206.73	27.447
207.52	27.603
208.31	27.758
209.09	27.914
209.88	28.070
210.66	28.226
211.45	28.381
213.53	28.537
216.63	28.693
219.73	28.849
222.83	29.004
225.94	29.160
229.04	29.316
229.94	29.472
230.70	29.627
231.46	29.783
232.22	29.939
232.98	30.095
233.83	30.250
234.74	30.406
236.03	30.562
239.05	30.715
242.06	30.870
245.07	31.026
248.08	31.182
251.09	31.337
253.35	31.493
255.04	31.649
256.72	31.805
258.40	31.961
260.08	32.117
261.76	32.273
265.49	32.429
269.32	32.585
273.15	32.740
276.99	32.896
280.84	33.052
284.69	33.208
288.54	33.363
292.39	33.519
296.22	33.675
299.98	33.830
303.74	33.986
307.50	34.142
311.27	34.298
315.03	34.453
318.79	34.609
323.08	34.765
327.40	34.921
331.71	35.076
336.02	35.232
340.33	35.387
343.50	35.541
346.52	35.696
349.54	35.851
352.56	36.007
355.58	36.162
363.33	36.318
372.19	36.473
379.94	36.629
386.00	36.784
392.07	36.940
398.14	37.095
406.09	37.251
416.98	37.407
427.88	37.562
438.77	37.718
450.04	37.873
464.34	38.029
478.64	38.184
492.94	38.272
409.54	38.106
375.14	37.964
340.74	37.820
326.23	37.664
312.59	37.508
298.95	37.353
285.31	37.197
271.67	37.041
258.03	36.885
250.24	36.730
247.45	36.574
244.67	36.418
241.88	36.262
239.09	36.107
236.30	35.951
233.52	35.795
230.73	35.639
227.94	35.484
225.15	35.328
222.37	35.172
219.58	35.016
216.79	34.861
214.00	34.705
211.22	34.549
208.43	34.394
205.64	34.238
202.85	34.082
200.06	33.926
199.51	33.771
201.49	33.615
200.04	33.459
198.59	33.303
197.14	33.148
195.69	32.992
194.23	32.836
192.78	32.680
191.33	32.525
189.88	32.369
188.43	32.213
186.98	32.057
185.52	31.902
184.07	31.746
182.62	31.590
181.17	31.434
179.72	31.279
178.27	31.123
176.81	30.967
175.36	30.811
173.91	30.656
172.46	30.500
171.01	30.344
169.56	30.188
168.27	30.033
167.05	29.877
165.82	29.721
164.59	29.565
163.37	29.410
162.14	29.254
160.91	29.098
159.69	28.942
158.46	28.787
157.23	28.631
156.01	28.475
154.78	28.319
153.55	28.164
152.33	28.008
151.10	27.852
149.87	27.696
148.65	27.541
147.42	27.385
146.19	27.229
145.06	27.073
144.02	26.918
142.97	26.762
141.93	26.606
140.89	26.450
139.85	26.295
138.81	26.139
137.77	25.983
136.73	25.827
135.69	25.672
134.65	25.516
133.61	25.360
132.57	25.204
131.52	25.049
130.48	24.893
129.44	24.737
128.40	24.581
127.36	24.426
126.32	24.270
125.28	24.115
124.24	23.960
123.20	23.804
122.16	23.648
121.12	23.493
120.08	23.337
119.03	23.181
117.99	23.025
116.95	22.869
115.91	22.714
114.87	22.558
113.83	22.402
112.79	22.248
111.78	22.089
110.81	21.933
109.85	21.777
108.88	21.622
107.91	21.466
106.95	21.311
105.98	21.155
105.02	20.999
104.05	20.844
103.09	20.688
102.12	20.533
101.15	20.377
100.19	20.221
99.222	20.066
98.256	19.910
97.290	19.755
96.324	19.599
95.359	19.443
94.393	19.288
93.427	19.132
92.461	18.977
91.495	18.821
90.529	18.665
89.563	18.510
88.598	18.354
87.632	18.198
86.666	18.042
85.700	17.887
84.734	17.731
83.768	17.575
82.802	17.419
81.837	17.263
80.889	17.108
79.985	16.952
79.081	16.796
78.177	16.640
77.273	16.484
76.368	16.328
75.464	16.173
74.560	16.017
73.656	15.861
72.752	15.705
71.848	15.549
70.944	15.394
70.039	15.238
69.135	15.082
68.231	14.927
67.327	14.771
66.428	14.616
65.530	14.461
64.632	14.306
63.734	14.150
62.836	13.995
61.938	13.838
61.040	13.681
60.142	13.525
59.244	13.369
58.346	13.214
57.448	13.058
56.550	12.902
55.652	12.746
54.754	12.590
53.856	12.434
52.958	12.279
52.060	12.123
51.162	11.967
50.264	11.811
49.366	11.655
48.468	11.499
47.570	11.344
46.672	11.188
45.774	11.032
44.876	10.876
43.978	10.721
43.080	10.565
42.182	10.409
41.284	10.253
40.386	10.098
39.488	9.9417
38.590	9.7860
37.722	9.6302
36.868	9.4744
36.014	9.3187
35.161	9.1629
34.307	9.0071
33.453	8.8513
32.599	8.6956
31.745	8.5398
30.891	8.3840
30.037	8.2282
29.183	8.0725
28.329	7.9167
27.475	7.7609
26.621	7.6051
25.767	7.4494
24.913	7.2936
24.059	7.1379
23.205	6.9822
22.351	6.8265
21.497	6.6708
20.643	6.5151
19.789	6.3594
18.935	6.2037
18.081	6.0480
17.227	5.8923
16.373	5.7366
15.519	5.5809
14.665	5.4252
13.811	5.2695
12.957	5.1138
12.104	4.9581
11.250	4.8024
10.396	4.6467
9.5416	4.4910
8.6879	4.3353
7.8345	4.1796
6.9810	4.0239
6.1276	3.8682
5.2742	3.7126
4.4207	3.5569
3.5673	3.4012
2.7138	3.2455
1.8604	3.0898
1.0070	2.9342
0.15353	2.7785
-0.69991	2.6228
-1.5533	2.4671
-2.4068	2.3114
-3.2602	2.1558
-4.1137	2.0001
-4.9671	1.8444
-5.7888	1.6887
-6.6059	1.5331
-7.4230	1.3774
-8.2400	1.2217
-9.0571	1.0660
-9.8742	0.91033
-10.691	0.75465
-11.508	0.59878
-12.325	0.44144
-13.142	0.28409
-13.960	0.12833
-14.777	-0.027386
-15.594	-0.18311
-16.411	-0.33883
-17.228	-0.49455
-18.045	-0.65027
-18.862	-0.80599
-19.679	-0.96171
-20.496	-1.1174
-21.313	-1.2731
-22.130	-1.4289
-22.947	-1.5846
-23.764	-1.7403
-24.582	-1.8960
-25.399	-2.0518
-26.216	-2.2075
-27.033	-2.3632
-27.850	-2.5189
-28.667	-2.6747
-29.484	-2.8304
-30.301	-2.9861
-31.118	-3.1419
-31.935	-3.2976
-32.752	-3.4534
-33.580	-3.6091
-34.427	-3.7648
-35.274	-3.9206
-36.120	-4.0763
-36.967	-4.2321
-37.813	-4.3878
-38.660	-4.5436
-39.507	-4.6993
-40.353	-4.8550
-41.200	-5.0107
-42.047	-5.1665
-42.893	-5.3222
-43.740	-5.4779
-44.686	-5.6336
-45.658	-5.7894
-46.630	-5.9451
-47.602	-6.1008
-48.574	-6.2565
-49.545	-6.4123
-50.315	-6.5680
-50.767	-6.7237
-51.537	-6.8794
-52.307	-7.0351
-53.077	-7.1909
-53.846	-7.3466
-54.616	-7.5023
-55.386	-7.6580
-56.156	-7.8138
-56.925	-7.9695
-57.695	-8.1252
-58.465	-8.2809
-59.245	-8.4367
-60.144	-8.5924
-61.044	-8.7483
-61.943	-8.9041
-62.843	-9.0599
-63.742	-9.2158
-64.642	-9.3716
-65.541	-9.5274
-66.440	-9.6833
-67.340	-9.8391
-68.239	-9.9950
-69.139	-10.151
-70.038	-10.307
-70.938	-10.462
-71.837	-10.618
-72.737	-10.774
-73.636	-10.930
-74.536	-11.086
-75.464	-11.242
-76.432	-11.397
-77.400	-11.553
-78.368	-11.709
-79.336	-11.865
-80.310	-12.021
-81.284	-12.177
-82.259	-12.333
-83.233	-12.488
-84.208	-12.644
-85.182	-12.800
-86.156	-12.955
-87.131	-13.111
-88.105	-13.267
-89.080	-13.423
-90.054	-13.578
-91.054	-13.734
-92.257	-13.890
-93.460	-14.046
-94.663	-14.201
-95.866	-14.357
-97.068	-14.513
-98.271	-14.668
-99.474	-14.824
-100.68	-14.980
-101.88	-15.136
-103.08	-15.291
-104.25	-15.447
-105.41	-15.602
-106.57	-15.757
-107.73	-15.913
-108.89	-16.068
-110.05	-16.224
-111.21	-16.379
-112.37	-16.535
-113.53	-16.691
-114.69	-16.846
-115.85	-17.002
-117.07	-17.158
-118.28	-17.313
-119.50	-17.469
-120.72	-17.624
-121.94	-17.780
-123.19	-17.936
-124.45	-18.091
-125.72	-18.247
-126.98	-18.403
-128.25	-18.558
-129.52	-18.714
-130.78	-18.870
-132.00	-19.025
-133.15	-19.181
-134.30	-19.337
-135.45	-19.492
-136.60	-19.648
-137.75	-19.804
-138.90	-19.959
-140.04	-20.115
-141.52	-20.271
-143.52	-20.426
-145.51	-20.582
-147.20	-20.738
-148.88	-20.893
-150.56	-21.049
-152.25	-21.205
-153.93	-21.361
-155.61	-21.516
-157.77	-21.672
-161.09	-21.828
-164.42	-21.983
-169.70	-22.139
-176.19	-22.295
-182.36	-22.451
-188.41	-22.606
-194.47	-22.762
-200.53	-22.918
-206.98	-23.073
-218.62	-23.229
-243.71	-23.384
-271.83	-23.539
-293.81	-23.693
-316.04	-23.847
-361.00	-24.002
-412.05	-24.156
-468.23	-24.310
-493.48	-24.431
-383.00	-24.273
-332.64	-24.202