File: text_data/C2 - 10.txt
Load (N)	Extension (mm)

5.1131
5.1176	0.055847
5.1220	0.055847
5.1265	0.055847
5.1309	0.055847
5.1353	0.055847
5.1398	0.055847
5.1442	0.055847
5.1486	0.055847
5.1531	0.055847
5.1575	0.055847
5.1620	0.055847
5.1664	0.055847
5.1708	0.055847
5.1753	0.055847
5.1797	0.055847
5.1841	0.048287
3.6281	0.0058456
2.4995	-0.039266
3.0132	-0.0018869
4.9109	0.013695
3.7351	0.0080536
5.5919	0.040165
5.3884	0.044309
4.3432	0.039604
4.0313	0.039477
3.7195	0.036706
3.4077	0.0095046
2.9423	-0.039716
2.3544	-0.085731
1.7664	-0.13054
1.1785	-0.18069
0.59056	-0.23085
0.0026214	-0.28179
-0.58531	-0.33294
-1.1732	-0.38467
-1.5739	-0.43729
-1.8488	-0.48991
-2.1238	-0.54253
-2.3987	-0.59515
-2.6736	-0.64776
-2.9486	-0.70038
-3.2235	-0.75303
-3.4984	-0.80577
-3.7733	-0.85851
-4.0483	-0.91125
-4.3232	-0.96399
-4.5981	-1.0167
-4.8731	-1.0695
-5.1480	-1.1222
-5.4229	-1.1744
-5.6979	-1.2266
-5.9728	-1.2797
-6.2477	-1.3333
-6.5226	-1.3865
-6.7976	-1.4391
-7.0725	-1.4918
-7.3474	-1.5444
-7.6224	-1.5971
-7.8973	-1.6499
-8.1722	-1.7029
-8.4471	-1.7559
-8.7221	-1.8090
-8.9970	-1.8614
-9.2719	-1.9133
-9.5469	-1.9653
-9.8218	-2.0178
-10.097	-2.0703
-10.372	-2.1227
-10.647	-2.1752
-10.922	-2.2277
-11.196	-2.2802
-11.471	-2.3327
-11.746	-2.3851
-12.021	-2.4376
-12.296	-2.4901
-12.571	-2.5426
-12.846	-2.5951
-13.121	-2.6475
-13.396	-2.7000
-13.671	-2.7525
-13.946	-2.8050
-14.221	-2.8574
-14.496	-2.9099
-14.771	-2.9624
-15.045	-3.0149
-15.320	-3.0674
-15.595	-3.1198
-15.870	-3.1723
-16.145	-3.2248
-16.420	-3.2773
-16.695	-3.3297
-16.970	-3.3822
-17.245	-3.4347
-17.520	-3.4872
-17.795	-3.5397
-18.070	-3.5921
-18.345	-3.6446
-18.620	-3.6971
-18.894	-3.7496
-19.169	-3.8021
-19.444	-3.8545
-19.719	-3.9070
-19.994	-3.9595
-20.269	-4.0120
-20.544	-4.0644
-20.819	-4.1168
-21.094	-4.1692
-21.369	-4.2215
-21.644	-4.2738
-21.919	-4.3261
-22.194	-4.3785
-22.469	-4.4308
-22.744	-4.4831
-23.018	-4.5354
-23.293	-4.5878
-23.568	-4.6401
-23.843	-4.6924
-24.118	-4.7447
-24.393	-4.7971
-24.668	-4.8494
-24.943	-4.9017
-25.218	-4.9541
-25.493	-5.0064
-25.768	-5.0587
-26.043	-5.1110
-26.318	-5.1634
-26.593	-5.2157
-26.867	-5.2680
-27.142	-5.3203
-27.417	-5.3727
-27.692	-5.4250
-27.967	-5.4773
-28.242	-5.5296
-28.517	-5.5820
-28.792	-5.6343
-29.067	-5.6866
-29.342	-5.7389
-29.617	-5.7913
-29.892	-5.8436
-30.167	-5.8959
-30.442	-5.9483
-30.716	-6.0006
-30.991	-6.0529
-31.266	-6.1052
-31.541	-6.1576
-31.816	-6.2099
-32.091	-6.2622
-32.366	-6.3145
-32.641	-6.3669
-32.916	-6.4192
-33.191	-6.4715
-33.466	-6.5238
-33.741	-6.5762
-34.016	-6.6285
-34.291	-6.6808
-34.565	-6.7331
-34.840	-6.7855
-35.115	-6.8378
-35.390	-6.8901
-35.665	-6.9424
-35.940	-6.9948
-36.215	-7.0471
-36.490	-7.0994
-36.765	-7.1518
-37.040	-7.2041
-37.315	-7.2564
-37.590	-7.3087
-37.865	-7.3611
-38.140	-7.4134
-38.415	-7.4657
-38.689	-7.5180
-38.964	-7.5704
-39.239	-7.6227
-39.514	-7.6750
-39.789	-7.7273
-40.064	-7.7797
-40.339	-7.8320
-40.614	-7.8843
-40.889	-7.9366
-41.164	-7.9890
-41.439	-8.0413
-41.714	-8.0936
-41.989	-8.1459
-42.264	-8.1983
-42.538	-8.2506
-42.813	-8.3029
-43.088	-8.3552
-43.363	-8.4075
-43.638	-8.4599
-43.913	-8.5122
-44.188	-8.5645
-44.463	-8.6168
-44.738	-8.6692
-45.013	-8.7215
-45.288	-8.7738
-45.563	-8.8261
-45.838	-8.8785
-46.113	-8.9308
-46.387	-8.9831
-46.662	-9.0354
-46.937	-9.0878
-47.212	-9.1401
-47.487	-9.1924
-47.762	-9.2447
-48.037	-9.2969
-48.312	-9.3491
-48.587	-9.4013
-48.862	-9.4535
-49.137	-9.5057
-49.412	-9.5579
-49.687	-9.6101
-49.962	-9.6622
-50.236	-9.7144
-50.511	-9.7666
-50.786	-9.8188
-51.061	-9.8710
-51.336	-9.9232
-51.611	-9.9713
-51.886	-10.012
-51.916	-10.029
-47.841	-10.004
-47.084	-10.001
-48.329	-10.002
-48.422	-10.004
-48.217	-10.003
-48.012	-9.9896
-45.757	-9.9523
-44.733	-9.9062
-44.282	-9.8600
-43.832	-9.8139
-43.382	-9.7639
-42.931	-9.7115
-42.481	-9.6592
-42.031	-9.6068
-41.580	-9.5545
-41.130	-9.5021
-40.680	-9.4498
-40.229	-9.3974
-39.779	-9.3450
-39.329	-9.2927
-38.878	-9.2403
-38.428	-9.1880
-37.978	-9.1356
-37.548	-9.0833
-37.292	-9.0309
-37.035	-8.9786
-36.779	-8.9262
-36.523	-8.8739
-36.267	-8.8215
-36.011	-8.7692
-35.755	-8.7168
-35.499	-8.6645
-35.243	-8.6121
-34.987	-8.5598
-34.731	-8.5074
-34.475	-8.4550
-34.219	-8.4027
-33.963	-8.3503
-33.707	-8.2980
-33.451	-8.2456
-33.195	-8.1933
-32.939	-8.1409
-32.683	-8.0886
-32.427	-8.0362
-32.171	-7.9839
-31.915	-7.9315
-31.659	-7.8792
-31.403	-7.8268
-31.147	-7.7745
-30.891	-7.7221
-30.635	-7.6698
-30.379	-7.6174
-30.123	-7.5650
-29.867	-7.5127
-29.611	-7.4603
-29.355	-7.4080
-29.099	-7.3556
-28.843	-7.3033
-28.587	-7.2509
-28.331	-7.1986
-28.075	-7.1462
-27.819	-7.0939
-27.563	-7.0415
-27.307	-6.9892
-27.051	-6.9368
-26.795	-6.8845
-26.539	-6.8321
-26.283	-6.7798
-26.027	-6.7274
-25.771	-6.6750
-25.515	-6.6227
-25.259	-6.5703
-25.003	-6.5180
-24.747	-6.4656
-24.491	-6.4133
-24.235	-6.3609
-23.979	-6.3086
-23.722	-6.2562
-23.466	-6.2039
-23.210	-6.1515
-22.954	-6.0992
-22.698	-6.0468
-22.442	-5.9945
-22.186	-5.9421
-21.930	-5.8898
-21.674	-5.8374
-21.418	-5.7850
-21.162	-5.7327
-20.906	-5.6803
-20.650	-5.6280
-20.394	-5.5756
-20.151	-5.5233
-19.921	-5.4709
-19.692	-5.4186
-19.463	-5.3662
-19.234	-5.3139
-19.005	-5.2615
-18.775	-5.2092
-18.546	-5.1568
-18.317	-5.1045
-18.088	-5.0521
-17.859	-4.9998
-17.630	-4.9474
-17.400	-4.8950
-17.171	-4.8427
-16.938	-4.7903
-16.677	-4.7380
-16.417	-4.6856
-16.156	-4.6333
-15.895	-4.5809
-15.635	-4.5286
-15.374	-4.4762
-15.114	-4.4239
-14.853	-4.3715
-14.593	-4.3192
-14.332	-4.2668
-14.072	-4.2145
-13.811	-4.1621
-13.551	-4.1098
-13.290	-4.0574
-13.029	-4.0050
-12.769	-3.9527
-12.508	-3.9003
-12.248	-3.8480
-11.987	-3.7956
-11.727	-3.7433
-11.466	-3.6909
-11.206	-3.6386
-10.945	-3.5862
-10.684	-3.5339
-10.424	-3.4815
-10.163	-3.4292
-9.9028	-3.3768
-9.6423	-3.3245
-9.3817	-3.2721
-9.1212	-3.2198
-8.8606	-3.1674
-8.6001	-3.1150
-8.3395	-3.0627
-8.0790	-3.0103
-7.8184	-2.9580
-7.5579	-2.9061
-7.2973	-2.8542
-7.0368	-2.8023
-6.7762	-2.7503
-6.5157	-2.6982
-6.2551	-2.6459
-5.9946	-2.5935
-5.7414	-2.5411
-5.4886	-2.4887
-5.2357	-2.4364
-4.9829	-2.3840
-4.7300	-2.3316
-4.4772	-2.2792
-4.2243	-2.2268
-3.9715	-2.1745
-3.7186	-2.1221
-3.4658	-2.0697
-3.2129	-2.0173
-2.9601	-1.9649
-2.7072	-1.9126
-2.4544	-1.8602
-2.2015	-1.8078
-1.9487	-1.7554
-1.6958	-1.7031
-1.4430	-1.6507
-1.1901	-1.5983
-0.93726	-1.5459
-0.68441	-1.4935
-0.43156	-1.4412
-0.17871	-1.3888
0.074141	-1.3364
0.32699	-1.2840
0.57984	-1.2316
0.83270	-1.1793
1.0855	-1.1270
1.3384	-1.0746
1.5913	-1.0223
1.8441	-0.96997
2.0970	-0.91763
2.3498	-0.86530
2.6027	-0.81296
2.8555	-0.76063
3.1084	-0.70830
3.3280	-0.65596
3.4876	-0.60363
3.6472	-0.55130
3.8414	-0.49896
4.2008	-0.44663
4.5602	-0.39430
4.9196	-0.34196
5.2790	-0.28963
5.6384	-0.23729
5.9978	-0.18496
6.3571	-0.13263
6.6838	-0.080293
6.8912	-0.027959
7.0986	0.024374
7.3060	0.076708
7.5134	0.12904
7.7208	0.18138
7.9282	0.23371
8.1356	0.28604
8.3430	0.33838
8.5504	0.39071
8.7578	0.44304
8.9652	0.49538
9.1726	0.54771
9.3799	0.60004
9.5873	0.65238
9.7947	0.70471
10.002	0.75705
10.262	0.80938
10.573	0.86171
10.884	0.91405
11.195	0.96638
11.506	1.0187
11.817	1.0710
12.128	1.1234
12.439	1.1757
12.750	1.2280
13.098	1.2804
13.459	1.3327
13.819	1.3850
14.119	1.4374
14.371	1.4897
14.624	1.5421
14.877	1.5944
15.130	1.6467
15.383	1.6991
15.636	1.7514
15.889	1.8037
16.142	1.8561
16.395	1.9084
16.648	1.9607
16.900	2.0131
17.153	2.0654
17.406	2.1177
17.659	2.1701
17.912	2.2224
18.165	2.2747
18.418	2.3271
18.671	2.3794
18.924	2.4318
19.177	2.4841
19.429	2.5364
19.682	2.5888
19.935	2.6411
20.188	2.6935
20.441	2.7458
20.721	2.7982
21.064	2.8505
21.406	2.9029
21.749	2.9552
22.091	3.0076
22.433	3.0599
22.776	3.1122
23.118	3.1646
23.461	3.2169
23.803	3.2693
24.146	3.3216
24.327	3.3740
24.502	3.4263
24.677	3.4787
24.852	3.5310
25.028	3.5833
25.203	3.6357
25.378	3.6880
25.553	3.7404
25.728	3.7927
25.903	3.8451
26.078	3.8974
26.253	3.9498
26.429	4.0021
26.604	4.0545
26.779	4.1068
27.067	4.1591
27.377	4.2115
27.687	4.2638
27.996	4.3162
28.306	4.3685
28.616	4.4209
28.926	4.4732
29.235	4.5256
29.545	4.5779
29.855	4.6302
30.164	4.6826
30.474	4.7349
30.784	4.7873
31.094	4.8396
31.403	4.8920
31.713	4.9443
32.023	4.9967
32.333	5.0490
32.642	5.1014
32.952	5.1537
33.262	5.2060
33.571	5.2584
33.881	5.3107
34.191	5.3631
34.501	5.4156
34.810	5.4681
35.077	5.5206
35.314	5.5731
35.550	5.6256
35.786	5.6781
36.023	5.7306
36.259	5.7831
36.496	5.8356
36.732	5.8879
36.968	5.9403
37.205	5.9926
37.441	6.0449
37.677	6.0972
37.914	6.1496
38.150	6.2019
38.386	6.2542
38.623	6.3066
38.859	6.3589
39.095	6.4112
39.332	6.4635
39.568	6.5159
39.906	6.5682
40.290	6.6205
40.674	6.6729
41.058	6.7252
41.442	6.7775
41.826	6.8298
42.210	6.8822
42.594	6.9345
42.978	6.9868
43.208	7.0392
43.426	7.0915
43.644	7.1438
43.862	7.1961
44.080	7.2485
44.298	7.3008
44.516	7.3531
44.734	7.4055
44.952	7.4578
45.170	7.5101
45.388	7.5624
45.606	7.6148
45.824	7.6671
46.042	7.7194
46.260	7.7718
46.478	7.8241
46.696	7.8764
46.914	7.9287
47.132	7.9811
47.350	8.0334
47.568	8.0851
47.786	8.1349
48.004	8.1848
48.229	8.2352
48.562	8.2948
48.895	8.3510
49.228	8.4032
49.561	8.4554
49.894	8.5076
50.227	8.5598
50.560	8.6120
50.893	8.6642
51.226	8.7164
51.559	8.7685
51.892	8.8207
52.225	8.8729
52.541	8.9251
52.821	8.9773
53.102	9.0295
53.382	9.0817
53.663	9.1339
53.943	9.1861
54.224	9.2383
54.504	9.2905
54.785	9.3427
55.065	9.3949
55.346	9.4470
55.571	9.4992
55.796	9.5514
56.021	9.6036
56.245	9.6558
56.470	9.7080
56.694	9.7602
56.919	9.8124
57.143	9.8646
57.368	9.9168
57.593	9.9690
57.817	10.004
56.032	9.9775
52.655	9.9066
52.007	9.8588
51.358	9.8111
50.709	9.7633
50.060	9.7155
49.412	9.6677
48.763	9.6200
48.114	9.5722
47.573	9.5244
47.293	9.4744
47.012	9.4220
46.732	9.3697
46.452	9.3174
46.172	9.2650
45.891	9.2127
45.611	9.1603
45.331	9.1080
45.050	9.0557
44.770	9.0033
44.490	8.9510
44.210	8.8986
43.929	8.8463
43.649	8.7940
43.369	8.7416
43.088	8.6893
42.808	8.6369
42.528	8.5846
42.247	8.5323
41.967	8.4799
41.687	8.4276
41.407	8.3752
41.126	8.3229
40.846	8.2706
40.566	8.2182
40.285	8.1659
40.005	8.1136
39.725	8.0612
39.445	8.0089
39.164	7.9565
38.884	7.9042
38.604	7.8519
38.323	7.7995
38.043	7.7472
37.763	7.6948
37.482	7.6425
37.202	7.5902
36.922	7.5378
36.642	7.4855
36.361	7.4331
36.081	7.3808
35.801	7.3285
35.520	7.2761
35.240	7.2238
34.960	7.1714
34.680	7.1191
34.399	7.0668
34.119	7.0144
33.839	6.9621
33.558	6.9097
33.278	6.8574
32.998	6.8051
32.717	6.7527
32.437	6.7004
32.157	6.6480
31.877	6.5957
31.596	6.5434
31.316	6.4910
31.036	6.4387
30.755	6.3863
30.475	6.3340
30.195	6.2817
29.915	6.2293
29.634	6.1770
29.354	6.1246
29.074	6.0723
28.793	6.0200
28.513	5.9676
28.233	5.9153
27.952	5.8630
27.672	5.8106
27.392	5.7583
27.112	5.7059
26.831	5.6536
26.551	5.6013
26.271	5.5489
25.990	5.4966
25.710	5.4442
25.430	5.3919
25.150	5.3396
24.869	5.2872
24.589	5.2349
24.309	5.1825
24.028	5.1302
23.748	5.0779
23.468	5.0255
23.187	4.9732
22.907	4.9208
22.627	4.8685
22.347	4.8162
22.066	4.7638
21.786	4.7115
21.506	4.6591
21.225	4.6068
20.945	4.5545
20.665	4.5021
20.385	4.4498
20.104	4.3974
19.793	4.3451
19.462	4.2928
19.132	4.2404
18.801	4.1881
18.471	4.1357
18.140	4.0834
17.810	4.0311
17.479	3.9787
17.191	3.9264
16.925	3.8740
16.659	3.8217
16.393	3.7694
16.127	3.7170
15.861	3.6647
15.595	3.6124
15.329	3.5600
15.063	3.5077
14.797	3.4553
14.531	3.4030
14.265	3.3507
13.999	3.2983
13.733	3.2460
13.467	3.1936
13.201	3.1413
12.936	3.0890
12.670	3.0366
12.404	2.9843
12.138	2.9319
11.872	2.8796
11.606	2.8273
11.340	2.7749
11.074	2.7226
10.808	2.6702
10.542	2.6179
10.276	2.5656
10.010	2.5132
9.7439	2.4609
9.4779	2.4085
9.2119	2.3562
8.9460	2.3039
8.6800	2.2515
8.4140	2.1992
8.1480	2.1468
7.8821	2.0945
7.6161	2.0422
7.3501	1.9898
7.0842	1.9375
6.8182	1.8851
6.5522	1.8328
6.2862	1.7805
6.0203	1.7281
5.7543	1.6758
5.4883	1.6234
5.2223	1.5711
4.9564	1.5188
4.6904	1.4664
4.4244	1.4141
4.1585	1.3583
3.8925	1.3008
3.6265	1.2485
3.3605	1.1962
3.0946	1.1439
2.8286	1.0917
2.5626	1.0394
2.2967	0.98710
2.0307	0.93481
1.7647	0.88253
1.4987	0.83025
1.2328	0.77797
0.96680	0.72568
0.70083	0.67340
0.43486	0.62112
0.16889	0.56883
-0.097082	0.51655
-0.36305	0.46427
-0.62902	0.41198
-0.89500	0.35970
-1.1610	0.30742
-1.4269	0.25513
-1.6929	0.20285
-1.9589	0.15057
-2.2249	0.098284
-2.4908	0.046001
-2.7568	-0.0062822
-3.0228	-0.058565
-3.2887	-0.11085
-3.5547	-0.16313
-3.8207	-0.21541
-4.0867	-0.26770
-4.3526	-0.31998
-4.6186	-0.37226
-4.8846	-0.42455
-5.1505	-0.47683
-5.4165	-0.52911
-5.6825	-0.58140
-5.9485	-0.63368
-6.2144	-0.68596
-6.4804	-0.73825
-6.7464	-0.79053
-7.0123	-0.84283
-7.2783	-0.89513
-7.5443	-0.94743
-7.8103	-0.99973
-8.0762	-1.0520
-8.3422	-1.1043
-8.6082	-1.1566
-8.8741	-1.2089
-9.1401	-1.2612
-9.4061	-1.3135
-9.6721	-1.3658
-9.9380	-1.4181
-10.204	-1.4704
-10.470	-1.5227
-10.736	-1.5750
-11.002	-1.6273
-11.268	-1.6796
-11.534	-1.7319
-11.800	-1.7842
-12.066	-1.8366
-12.332	-1.8889
-12.598	-1.9412
-12.864	-1.9935
-13.130	-2.0458
-13.396	-2.0981
-13.662	-2.1504
-13.928	-2.2027
-14.194	-2.2550
-14.460	-2.3073
-14.726	-2.3596
-14.991	-2.4121
-15.257	-2.4645
-15.523	-2.5169
-15.789	-2.5694
-16.055	-2.6218
-16.321	-2.6743
-16.587	-2.7267
-16.853	-2.7791
-17.119	-2.8316
-17.386	-2.8840
-17.654	-2.9365
-17.922	-2.9889
-18.189	-3.0413
-18.457	-3.0938
-18.725	-3.1462
-18.993	-3.1986
-19.261	-3.2511
-19.529	-3.3035
-19.797	-3.3560
-20.065	-3.4084
-20.333	-3.4608
-20.601	-3.5133
-20.869	-3.5657
-21.137	-3.6181
-21.405	-3.6706
-21.673	-3.7230
-21.941	-3.7755
-22.209	-3.8279
-22.477	-3.8803
-22.745	-3.9328
-23.013	-3.9852
-23.281	-4.0377
-23.549	-4.0901
-23.817	-4.1425
-24.085	-4.1950
-24.353	-4.2474
-24.621	-4.2998
-24.889	-4.3521
-25.157	-4.4044
-25.425	-4.4568
-25.693	-4.5091
-25.961	-4.5615
-26.229	-4.6138
-26.497	-4.6662
-26.765	-4.7185
-27.033	-4.7708
-27.301	-4.8232
-27.569	-4.8755
-27.837	-4.9279
-28.105	-4.9802
-28.373	-5.0326
-28.641	-5.0849
-28.909	-5.1372
-29.177	-5.1896
-29.445	-5.2419
-29.713	-5.2943
-29.981	-5.3466
-30.249	-5.3990
-30.517	-5.4513
-30.785	-5.5036
-31.053	-5.5560
-31.321	-5.6083
-31.589	-5.6607
-31.857	-5.7130
-32.125	-5.7654
-32.393	-5.8177
-32.661	-5.8700
-32.929	-5.9224
-33.197	-5.9747
-33.465	-6.0271
-33.733	-6.0794
-34.001	-6.1318
-34.269	-6.1841
-34.537	-6.2364
-34.805	-6.2888
-35.073	-6.3411
-35.341	-6.3935
-35.609	-6.4458
-35.877	-6.4982
-36.145	-6.5505
-36.413	-6.6028
-36.681	-6.6552
-36.949	-6.7075
-37.217	-6.7599
-37.485	-6.8122
-37.752	-6.8646
-38.067	-6.9169
-38.397	-6.9692
-38.727	-7.0216
-39.029	-7.0739
-39.311	-7.1263
-39.594	-7.1786
-39.876	-7.2310
-40.158	-7.2833
-40.441	-7.3356
-40.723	-7.3880
-41.005	-7.4403
-41.287	-7.4927
-41.570	-7.5450
-41.852	-7.5974
-42.134	-7.6497
-42.416	-7.7020
-42.699	-7.7544
-42.981	-7.8067
-43.263	-7.8591
-43.546	-7.9114
-43.828	-7.9638
-44.110	-8.0161
-44.392	-8.0684
-44.675	-8.1208
-44.957	-8.1731
-45.239	-8.2255
-45.522	-8.2778
-45.804	-8.3302
-46.086	-8.3825
-46.368	-8.4348
-46.651	-8.4872
-46.933	-8.5395
-47.215	-8.5919
-47.497	-8.6442
-47.780	-8.6965
-48.062	-8.7488
-48.345	-8.8011
-48.628	-8.8534
-48.912	-8.9057
-49.195	-8.9580
-49.478	-9.0103
-49.762	-9.0626
-50.045	-9.1149
-50.328	-9.1672
-50.611	-9.2195
-50.895	-9.2718
-51.178	-9.3241
-51.461	-9.3764
-51.745	-9.4287
-52.028	-9.4810
-52.311	-9.5333
-52.594	-9.5857
-52.878	-9.6380
-53.161	-9.6903
-53.444	-9.7426
-53.727	-9.7949
-54.011	-9.8472
-54.294	-9.8995
-54.577	-9.9518
-54.861	-10.002
-54.912	-10.012
-49.916	-9.9621
-45.198	-9.9068
-43.024	-9.8593
-42.604	-9.8155
-42.394	-9.7936