File: text_data/C2.txt
Load (N)	Extension (mm)

5.2144	0.058277
5.2208	0.058250
5.2271	0.058223
5.2335	0.058196
5.2398	0.058169
5.2462	0.058143
5.2525	0.051635
2.1180	-0.014438
2.8662	-0.0019972
6.8320	0.081320
4.7070	0.014167
2.5821	-0.12016
0.45715	-0.26702
-1.6678	-0.41729
-3.2479	-0.56789
-4.0466	-0.72063
-4.8452	-0.87337
-5.6439	-1.0261
-6.4426	-1.1789
-7.2412	-1.3316
-8.0399	-1.4843
-8.8385	-1.6369
-9.6372	-1.7891
-10.436	-1.9412
-11.235	-2.0930
-12.033	-2.2438
-12.832	-2.3952
-13.631	-2.5465
-14.429	-2.6979
-15.228	-2.8492
-16.026	-3.0005
-16.825	-3.1520
-17.624	-3.3037
-18.422	-3.4554
-19.221	-3.6071
-20.020	-3.7588
-20.818	-3.9105
-21.617	-4.0622
-22.416	-4.2139
-23.214	-4.3652
-24.013	-4.5165
-24.812	-4.6678
-25.610	-4.8191
-26.409	-4.9704
-27.208	-5.1216
-28.006	-5.2729
-28.805	-5.4242
-29.604	-5.5755
-30.402	-5.7268
-31.201	-5.8780
-32.000	-6.0293
-32.798	-6.1806
-33.597	-6.3319
-34.396	-6.4831
-35.194	-6.6344
-35.993	-6.7857
-36.792	-6.9370
-37.590	-7.0883
-38.389	-7.2395
-39.188	-7.3908
-39.986	-7.5421
-40.785	-7.6935
-41.584	-7.8449
-42.382	-7.9963
-43.181	-8.1477
-43.980	-8.2991
-44.778	-8.4505
-44.699	-8.6019
-45.519	-8.7533
-46.340	-8.9047
-47.160	-9.0561
-47.980	-9.2074
-48.800	-9.3587
-49.621	-9.5101
-50.441	-9.6614
-51.261	-9.8128
-52.081	-9.9641
-52.902	-10.115
-53.722	-10.267
-54.542	-10.418
-55.363	-10.570
-56.183	-10.721
-57.003	-10.872
-57.823	-11.024
-58.644	-11.175
-59.464	-11.326
-60.284	-11.478
-61.104	-11.629
-61.925	-11.780
-62.745	-11.932
-63.441	-12.083
-64.087	-12.234
-64.787	-12.386
-65.668	-12.537
-66.549	-12.688
-67.430	-12.840
-68.310	-12.991
-69.191	-13.142
-70.084	-13.294
-71.031	-13.445
-71.978	-13.596
-72.926	-13.748
-73.873	-13.899
-74.820	-14.050
-75.768	-14.202
-76.715	-14.353
-77.662	-14.504
-78.609	-14.656
-79.557	-14.807
-80.504	-14.958
-81.451	-15.110
-82.398	-15.261
-83.346	-15.412
-84.293	-15.564
-85.240	-15.715
-86.219	-15.866
-87.214	-16.018
-88.209	-16.169
-89.204	-16.320
-90.241	-16.472
-91.400	-16.623
-92.558	-16.774
-93.716	-16.925
-94.874	-17.077
-96.025	-17.228
-97.175	-17.379
-98.326	-17.531
-99.476	-17.682
-100.63	-17.833
-101.73	-17.984
-102.80	-18.136
-103.87	-18.287
-104.94	-18.438
-106.01	-18.589
-107.08	-18.740
-108.15	-18.891
-109.22	-19.042
-110.87	-19.193
-112.24	-19.344
-113.33	-19.495
-114.41	-19.646
-115.67	-19.796
-117.09	-19.949
-118.51	-20.101
-119.94	-20.253
-121.36	-20.405
-123.06	-20.556
-124.98	-20.708
-126.90	-20.859
-130.20	-21.011
-133.84	-21.162
-137.59	-21.312
-143.19	-21.463
-148.80	-21.613
-163.87	-21.764
-181.36	-21.914
-208.50	-22.065
-253.64	-22.215
-317.09	-22.365
-390.45	-22.513
-464.98	-22.660
-530.47	-22.775
-534.84	-22.780
-525.02	-22.774
-447.67	-22.643
-336.24	-22.504
-239.23	-22.360
-204.82	-22.208
-170.41	-22.057
-136.00	-21.906
-112.77	-21.755
-111.88	-21.604
-110.99	-21.452
-110.10	-21.301
-109.21	-21.150
-108.32	-20.999
-107.43	-20.847
-106.54	-20.696
-105.65	-20.545
-104.76	-20.394
-103.87	-20.243
-102.98	-20.091
-102.09	-19.940
-101.20	-19.789
-100.31	-19.638
-99.419	-19.487
-98.529	-19.335
-97.639	-19.184
-96.749	-19.033
-95.858	-18.882
-94.968	-18.730
-94.078	-18.579
-78.039	-18.428
-77.289	-18.277
-76.539	-18.126
-75.789	-17.974
-75.039	-17.823
-74.289	-17.672
-73.539	-17.521
-72.788	-17.369
-72.038	-17.218
-71.288	-17.067
-70.538	-16.916
-69.788	-16.765
-69.038	-16.613
-68.288	-16.462
-67.538	-16.311
-66.787	-16.160
-66.045	-16.008
-65.398	-15.857
-64.751	-15.706
-64.104	-15.555
-63.457	-15.403
-62.810	-15.252
-62.163	-15.101
-61.517	-14.950
-60.870	-14.798
-60.242	-14.647
-59.667	-14.496
-59.093	-14.345
-58.518	-14.193
-57.943	-14.042
-57.369	-13.891
-56.794	-13.740
-56.219	-13.588
-55.645	-13.437
-55.070	-13.286
-54.363	-13.134
-53.578	-12.982
-52.793	-12.830
-52.008	-12.679
-51.223	-12.528
-50.438	-12.376
-49.653	-12.225
-48.888	-12.074
-48.145	-11.922
-47.401	-11.771
-46.658	-11.619
-45.914	-11.468
-45.170	-11.317
-44.427	-11.165
-43.683	-11.014
-42.940	-10.863
-42.196	-10.711
-41.453	-10.560
-40.709	-10.409
-39.966	-10.257
-39.294	-10.106
-38.826	-9.9549
-38.358	-9.8036
-37.890	-9.6523
-37.422	-9.5010
-36.954	-9.3497
-36.486	-9.1984
-35.932	-9.0471
-35.236	-8.8958
-34.540	-8.7445
-33.845	-8.5932
-33.149	-8.4419
-32.453	-8.2906
-31.757	-8.1393
-31.061	-7.9880
-30.365	-7.8367
-29.669	-7.6854
-28.974	-7.5341
-28.278	-7.3828
-27.582	-7.2315
-26.886	-7.0802
-26.190	-6.9289
-25.494	-6.7776
-24.798	-6.6262
-24.102	-6.4749
-23.354	-6.3236
-22.588	-6.1723
-21.823	-6.0210
-21.058	-5.8697
-20.292	-5.7184
-19.527	-5.5671
-18.776	-5.4158
-18.045	-5.2645
-17.315	-5.1132
-16.584	-4.9619
-15.853	-4.8106
-15.122	-4.6588
-14.391	-4.5054
-13.660	-4.3542
-12.929	-4.2029
-12.198	-4.0516
-11.465	-3.9004
-10.733	-3.7491
-10.000	-3.5979
-9.2680	-3.4466
-8.5355	-3.2954
-7.8030	-3.1441
-7.0705	-2.9929
-6.3457	-2.8416
-5.6254	-2.6904
-4.9051	-2.5391
-4.1847	-2.3879
-3.4644	-2.2366
-2.7441	-2.0854
-2.0237	-1.9341
-1.3034	-1.7829
-0.58306	-1.6318
0.13728	-1.4806
0.85761	-1.3294
1.5779	-1.1782
2.2983	-1.0271
3.0186	-0.87588
3.7390	-0.72470
4.4593	-0.57352
5.1796	-0.42234
5.9000	-0.27116
6.6180	-0.11998
7.3334	0.031400
8.0488	0.18289
8.7642	0.33439
9.4796	0.48566
10.195	0.63680
10.910	0.78793
11.626	0.93906
12.341	1.0902
13.057	1.2413
13.772	1.3925
14.488	1.5436
15.203	1.6947
15.918	1.8459
16.634	1.9970
17.349	2.1482
18.071	2.2998
18.799	2.4515
19.527	2.6032
20.255	2.7548
20.983	2.9065
21.710	3.0582
22.438	3.2098
23.166	3.3615
23.895	3.5128
24.624	3.6641
25.353	3.8155
26.081	3.9668
26.810	4.1181
27.539	4.2695
28.268	4.4208
28.997	4.5721
29.726	4.7235
30.455	4.8748
31.184	5.0261
31.913	5.1775
32.642	5.3288
33.392	5.4801
34.191	5.6314
34.989	5.7827
35.788	5.9340
36.586	6.0853
37.385	6.2366
38.183	6.3879
38.982	6.5393
39.780	6.6906
40.579	6.8419
41.377	6.9932
42.176	7.1445
42.974	7.2958
43.773	7.4471
44.571	7.5984
45.370	7.7497
46.168	7.9010
46.967	8.0523
47.765	8.2036
48.564	8.3493
49.362	8.4876
50.161	8.6593
51.018	8.8079
51.887	8.9565
52.756	9.1051
53.625	9.2563
54.495	9.4081
55.364	9.5600
56.233	9.7118
56.806	9.8636
57.366	10.015
58.056	10.167
59.261	10.319
60.466	10.471
61.670	10.622
62.875	10.774
63.829	10.925
64.555	11.076
65.280	11.227
66.006	11.379
66.732	11.530
67.457	11.681
68.183	11.833
68.908	11.984
69.762	12.135
70.969	12.287
72.176	12.438
73.384	12.589
74.591	12.740
75.798	12.892
76.828	13.043
77.668	13.194
78.508	13.346
79.348	13.497
80.188	13.648
81.028	13.800
81.868	13.951
82.708	14.102
83.548	14.253
84.388	14.405
85.228	14.556
86.068	14.707
86.908	14.859
87.748	15.010
88.588	15.161
89.428	15.312
90.268	15.464
91.108	15.615
91.947	15.766
92.787	15.918
93.627	16.069
94.449	16.221
95.226	16.373
96.003	16.525
96.780	16.676
97.557	16.828
98.334	16.979
99.111	17.130
99.985	17.281
100.86	17.432
101.74	17.584
102.62	17.735
103.50	17.886
104.52	18.037
106.18	18.189
107.84	18.340
109.50	18.491
110.80	18.642
111.32	18.793
111.84	18.945
112.37	19.096
112.89	19.247
113.41	19.398
113.93	19.550
114.80	19.701
116.10	19.852
117.40	20.004
118.93	20.155
120.81	20.306
122.68	20.458
124.48	20.609
125.76	20.760
127.04	20.912
127.80	21.063
128.27	21.214
128.73	21.366
129.20	21.517
129.66	21.670
130.12	21.822
130.84	21.973
132.12	22.124
133.40	22.276
134.69	22.427
135.97	22.578
138.40	22.730
140.97	22.881
142.70	23.032
143.27	23.184
143.85	23.335
144.43	23.486
145.00	23.638
145.58	23.789
146.16	23.940
147.01	24.092
148.61	24.243
150.22	24.394
151.83	24.546
154.13	24.697
156.45	24.848
158.19	25.000
159.29	25.151
160.39	25.302
161.50	25.454
162.60	25.605
163.70	25.756
164.81	25.908
165.91	26.059
167.01	26.210
168.11	26.362
169.65	26.513
172.21	26.664
174.77	26.816
177.33	26.967
178.57	27.119
179.81	27.270
181.06	27.422
182.30	27.573
183.54	27.725
184.78	27.876
186.02	28.027
187.26	28.178
188.50	28.330
189.74	28.481
191.51	28.632
194.79	28.784
198.07	28.935
200.34	29.086
201.61	29.238
202.88	29.389
204.15	29.540
205.42	29.692
206.69	29.843
207.96	29.994
209.24	30.146
210.51	30.297
212.73	30.448
214.99	30.599
217.25	30.751
220.16	30.902
223.41	31.053
226.65	31.205
228.34	31.356
229.88	31.507
231.42	31.659
232.96	31.810
234.50	31.961
236.04	32.113
237.58	32.264
239.13	32.415
241.35	32.567
243.93	32.718
246.74	32.869
250.57	33.020
254.40	33.171
257.05	33.323
259.20	33.474
261.35	33.625
263.50	33.776
265.65	33.927
267.80	34.078
269.95	34.230
272.92	34.381
276.57	34.532
280.22	34.683
283.87	34.834
287.72	34.985
291.65	35.136
295.58	35.288
299.51	35.439
302.53	35.590
305.38	35.741
308.23	35.892
311.07	36.043
313.92	36.194
316.77	36.345
319.61	36.497
322.46	36.648
325.31	36.799
327.98	36.950
329.96	37.102
331.94	37.253
333.92	37.404
337.44	37.555
343.67	37.707
351.65	37.858
356.59	38.009
361.52	38.160
366.46	38.312
371.40	38.463
376.34	38.614
381.27	38.765
388.88	38.917
398.73	39.068
408.59	39.219
418.45	39.370
428.30	39.521
438.16	39.671
448.01	39.822
461.09	39.973
474.38	40.123
487.68	40.269
439.85	40.150
396.89	40.010
365.61	39.862
340.24	39.711
326.89	39.560
313.53	39.408
300.18	39.257
286.82	39.106
281.46	38.955
276.74	38.803
272.02	38.652
267.31	38.501
262.59	38.350
257.87	38.199
253.15	38.047
248.43	37.896
245.50	37.745
242.68	37.594
239.85	37.442
237.03	37.291
234.21	37.140
231.38	36.989
228.56	36.837
226.11	36.686
224.03	36.535
221.95	36.384
219.87	36.232
217.80	36.081
215.72	35.930
213.64	35.779
211.56	35.627
209.48	35.476
207.79	35.325
206.11	35.174
204.44	35.022
202.76	34.871
201.08	34.720
199.41	34.568
197.73	34.417
196.06	34.266
194.38	34.115
192.70	33.963
191.25	33.812
189.85	33.661
188.45	33.510
187.05	33.358
185.65	33.207
184.25	33.056
182.85	32.904
181.46	32.753
180.06	32.602
178.66	32.451
177.26	32.299
175.96	32.148
174.74	31.997
173.53	31.845
172.32	31.690
171.11	31.538
169.90	31.387
168.69	31.236
167.47	31.085
166.26	30.934
165.05	30.783
163.84	30.631
162.63	30.480
161.41	30.329
160.20	30.177
159.08	30.026
157.99	29.875
156.89	29.724
155.80	29.572
154.71	29.421
153.62	29.269
152.53	29.118
151.43	28.967
150.34	28.815
149.25	28.664
148.16	28.512
147.06	28.361
145.97	28.210
144.88	28.058
143.79	27.907
142.70	27.755
141.60	27.604
140.52	27.453
139.52	27.301
138.52	27.150
137.52	26.998
136.52	26.847
135.52	26.696
134.52	26.544
133.52	26.393
132.51	26.241
131.51	26.090
130.51	25.939
129.51	25.787
128.51	25.636
127.52	25.485
126.57	25.333
125.61	25.182
124.66	25.031
123.71	24.880
122.75	24.728
121.80	24.577
120.85	24.426
119.90	24.275
118.94	24.123
117.99	23.972
117.04	23.822
116.09	23.673
115.13	23.519
114.18	23.366
113.23	23.215
112.27	23.064
111.32	22.912
110.37	22.761
109.42	22.610
108.48	22.458
107.58	22.307
106.68	22.156
105.78	22.004
104.88	21.853
103.98	21.702
103.08	21.550
102.18	21.399
101.28	21.248
100.38	21.096
99.475	20.945
98.575	20.793
97.674	20.642
96.773	20.491
95.872	20.339
94.972	20.188
94.071	20.037
93.170	19.885
92.270	19.734
91.369	19.582
90.468	19.431
89.567	19.280
88.667	19.128
87.766	18.977
86.865	18.825
85.965	18.674
85.064	18.523
84.163	18.371
83.282	18.220
82.417	18.068
81.552	17.917
80.687	17.766
79.821	17.614
78.956	17.463
78.091	17.312
77.226	17.160
76.360	17.009
75.495	16.857
74.630	16.706
73.764	16.555
72.899	16.403
72.035	16.252
71.185	16.100
70.335	15.949
69.485	15.798
68.635	15.650
67.785	15.499
66.935	15.348
66.085	15.197
65.237	15.046
64.409	14.894
63.582	14.743
62.754	14.592
61.927	14.440
61.099	14.289
60.263	14.137
59.409	13.986
58.554	13.834
57.700	13.682
56.845	13.531
55.991	13.379
55.136	13.227
54.282	13.076
53.399	12.924
52.513	12.773
51.627	12.621
50.740	12.470
49.854	12.319
48.968	12.167
48.081	12.016
47.195	11.864
46.309	11.713
45.422	11.561
44.536	11.410
43.649	11.259
42.763	11.107
41.893	10.956
41.032	10.804
40.170	10.653
39.308	10.502
38.446	10.351
37.585	10.200
36.723	10.050
35.861	9.8984
35.000	9.7470
34.138	9.5956
33.276	9.4442
32.415	9.2928
31.553	9.1415
30.691	8.9901
29.829	8.8387
28.968	8.6873
28.106	8.5359
27.244	8.3845
26.383	8.2331
25.521	8.0818
24.659	7.9304
23.798	7.7791
22.936	7.6278
22.074	7.4765
21.212	7.3251
20.351	7.1738
19.489	7.0225
18.627	6.8712
17.766	6.7199
17.811	6.5686
16.963	6.4172
16.115	6.2659
15.267	6.1146
14.420	5.9633
13.572	5.8120
12.724	5.6607
11.877	5.5093
11.029	5.3580
10.181	5.2067
9.3333	5.0555
8.4855	4.9043
7.6378	4.7531
6.7900	4.6019
5.9350	4.4507
5.0713	4.2995
4.2076	4.1483
3.3439	3.9971
2.4802	3.8459
1.6165	3.6946
0.75279	3.5434
-0.11092	3.3922
-0.97463	3.2410
-1.8383	3.0898
-2.7020	2.9386
-3.5658	2.7874
-4.4295	2.6362
-5.2932	2.4850
-6.1569	2.3338
-7.0206	2.1826
-7.8843	2.0313
-8.7480	1.8801
-9.5706	1.7289
-10.385	1.5777
-11.199	1.4265
-12.014	1.2753
-12.828	1.1241
-13.643	0.97288
-14.457	0.82167
-15.352	0.66807
-16.285	0.51580
-17.217	0.36458
-18.150	0.21337
-19.083	0.062153
-20.016	-0.089062
-20.948	-0.24028
-21.881	-0.39149
-22.814	-0.54271
-23.068	-0.69392
-23.854	-0.84514
-24.640	-0.99635
-25.426	-1.1476
-26.212	-1.2993
-27.071	-1.4513
-27.973	-1.6032
-28.874	-1.7522
-29.776	-1.9037
-30.677	-2.0552
-31.578	-2.2067
-32.480	-2.3581
-33.381	-2.5096
-34.283	-2.6611
-35.184	-2.8125
-36.086	-2.9640
-36.987	-3.1155
-37.888	-3.2668
-38.790	-3.4181
-39.691	-3.5694
-40.593	-3.7206
-41.494	-3.8719
-42.456	-4.0231
-43.262	-4.1744
-44.012	-4.3257
-44.762	-4.4769
-45.512	-4.6282
-46.275	-4.7795
-47.226	-4.9307
-48.177	-5.0820
-49.127	-5.2333
-50.078	-5.3847
-51.029	-5.5360
-51.979	-5.6874
-52.930	-5.8387
-53.880	-5.9901
-54.831	-6.1414
-55.782	-6.2928
-56.732	-6.4441
-57.683	-6.5955
-58.634	-6.7469
-59.584	-6.8982
-60.535	-7.0496
-61.486	-7.2009
-62.417	-7.3523
-63.344	-7.5036
-64.271	-7.6550
-65.199	-7.8063
-66.126	-7.9577
-67.053	-8.1090
-67.980	-8.2604
-68.907	-8.4117
-69.963	-8.5631
-71.116	-8.7144
-72.269	-8.8658
-73.422	-9.0170
-74.576	-9.1682
-75.729	-9.3193
-76.882	-9.4705
-78.035	-9.6216
-79.188	-9.7728
-80.341	-9.9239
-81.470	-10.075
-82.395	-10.226
-83.319	-10.378
-84.352	-10.529
-85.449	-10.680
-86.545	-10.831
-87.641	-10.982
-88.737	-11.134
-89.833	-11.285
-90.930	-11.436
-92.026	-11.587
-93.122	-11.739
-94.218	-11.891
-95.314	-12.044
-96.410	-12.195
-97.507	-12.346
-98.603	-12.498
-99.699	-12.649
-100.80	-12.801
-101.89	-12.952
-102.99	-13.103
-104.08	-13.255
-105.18	-13.406
-106.28	-13.557
-107.37	-13.709
-108.23	-13.860
-107.76	-14.011
-109.65	-14.163
-111.09	-14.314
-112.20	-14.465
-113.31	-14.617
-114.42	-14.768
-115.53	-14.920
-116.64	-15.071
-118.46	-15.222
-119.84	-15.374
-120.78	-15.525
-121.71	-15.676
-122.64	-15.828
-123.69	-15.979
-124.98	-16.130
-126.28	-16.281
-127.58	-16.433
-128.87	-16.584
-130.17	-16.735
-131.47	-16.886
-132.18	-17.038
-132.86	-17.189
-133.55	-17.340
-134.75	-17.491
-136.20	-17.643
-137.66	-17.794
-139.11	-17.945
-140.57	-18.096
-142.03	-18.248
-143.48	-18.399
-144.94	-18.550
-146.39	-18.701
-147.85	-18.853
-149.30	-19.004
-150.76	-19.155
-152.22	-19.307
-154.06	-19.458
-156.06	-19.609
-158.05	-19.760
-160.05	-19.912
-162.04	-20.063
-164.04	-20.214
-166.03	-20.365
-168.03	-20.516
-171.03	-20.667
-178.30	-20.818
-185.57	-20.970
-192.84	-21.121
-200.11	-21.272
-212.27	-21.423
-230.75	-21.574
-259.87	-21.725
-288.11	-21.875
-315.40	-22.026
-342.68	-22.176
-369.96	-22.326
-410.91	-22.476
-453.31	-22.625
-517.91	-22.744
-396.78	-22.586
-336.64	-22.520