File: text_data/C3-10.txt
Load (N)	Extension (mm)

-3.3060	-1.1237
-3.3030	-1.1237
-3.2999	-1.1237
-3.2969	-1.1237
-3.2938	-1.1237
-3.2908	-1.1237
-3.2878	-1.1237
-3.2847	-1.1237
-3.2817	-1.1237
-3.2787	-1.1237
-3.2756	-1.1237
-3.2726	-1.1237
-3.2695	-1.1237
-3.2665	-1.1237
-3.2635	-1.1237
-3.2604	-1.1205
-2.0430	-1.0950
-0.96674	-1.0546
-0.77569	-1.0104
-0.58463	-0.96274
-0.39357	-0.91406
-0.20252	-0.86057
-0.011462	-0.80707
0.17959	-0.75358
0.37065	-0.70008
0.56171	-0.64659
0.75276	-0.59309
1.0114	-0.53933
1.6437	-0.48554
2.2759	-0.43176
2.9082	-0.37798
3.4208	-0.32373
3.5842	-0.26811
3.7475	-0.21392
3.9109	-0.16035
4.0742	-0.10667
4.2376	-0.052797
4.4010	0.0010779
4.5643	0.053308
4.7277	0.083403
4.0004	0.080618
2.8521	0.072715
2.0686	0.072246
1.9930	0.071776
1.9174	0.071306
1.8418	0.070294
1.7661	0.056903
1.6905	0.012399
1.4009	-0.036363
1.0828	-0.084479
0.76475	-0.13259
0.44667	-0.18404
0.12859	-0.23651
-0.18950	-0.28898
-0.50758	-0.34145
-0.82566	-0.39392
-1.1437	-0.44639
-1.4618	-0.49921
-1.7799	-0.55236
-2.0980	-0.60550
-2.4161	-0.65865
-2.7341	-0.71179
-3.0522	-0.76494
-3.3703	-0.81808
-3.6884	-0.87123
-4.0065	-0.92437
-4.3246	-0.97752
-4.6426	-1.0307
-4.9607	-1.0846
-5.2788	-1.1391
-5.5969	-1.1936
-5.9150	-1.2481
-6.2330	-1.3026
-6.5511	-1.3558
-6.8692	-1.4089
-7.1873	-1.4620
-7.5054	-1.5151
-7.8234	-1.5682
-8.1415	-1.6213
-8.4596	-1.6744
-8.7777	-1.7275
-9.0958	-1.7806
-9.4138	-1.8337
-9.6985	-1.8868
-9.9746	-1.9400
-10.251	-1.9938
-10.527	-2.0475
-10.803	-2.1012
-11.079	-2.1550
-11.356	-2.2087
-11.632	-2.2625
-11.908	-2.3162
-12.184	-2.3699
-12.460	-2.4237
-12.736	-2.4774
-13.013	-2.5312
-13.289	-2.5849
-13.565	-2.6386
-13.841	-2.6924
-14.117	-2.7461
-14.393	-2.7998
-14.670	-2.8536
-14.946	-2.9073
-15.222	-2.9611
-15.498	-3.0148
-15.774	-3.0685
-16.050	-3.1223
-16.327	-3.1760
-16.603	-3.2295
-16.879	-3.2830
-17.155	-3.3364
-17.431	-3.3899
-17.708	-3.4433
-17.984	-3.4968
-18.260	-3.5502
-18.536	-3.6037
-18.812	-3.6571
-19.088	-3.7106
-19.365	-3.7640
-19.641	-3.8175
-19.917	-3.8709
-20.193	-3.9244
-20.469	-3.9778
-20.745	-4.0313
-21.022	-4.0847
-21.298	-4.1381
-21.574	-4.1916
-21.850	-4.2450
-22.126	-4.2985
-22.402	-4.3519
-22.679	-4.4053
-22.955	-4.4587
-23.231	-4.5121
-23.507	-4.5655
-23.783	-4.6189
-24.060	-4.6723
-24.336	-4.7257
-24.612	-4.7791
-24.888	-4.8325
-25.164	-4.8859
-25.440	-4.9393
-25.717	-4.9927
-25.993	-5.0461
-26.269	-5.0995
-26.545	-5.1529
-26.821	-5.2063
-27.097	-5.2597
-27.374	-5.3131
-27.650	-5.3665
-27.926	-5.4199
-28.202	-5.4733
-28.478	-5.5267
-28.754	-5.5801
-29.031	-5.6335
-29.307	-5.6869
-29.583	-5.7403
-29.859	-5.7937
-30.135	-5.8471
-30.412	-5.9005
-30.688	-5.9539
-30.964	-6.0073
-31.240	-6.0607
-31.516	-6.1141
-31.792	-6.1675
-32.069	-6.2209
-32.345	-6.2743
-32.621	-6.3277
-32.897	-6.3810
-33.173	-6.4344
-33.449	-6.4878
-33.764	-6.5412
-34.122	-6.5946
-34.479	-6.6480
-34.836	-6.7014
-35.193	-6.7548
-35.549	-6.8082
-35.851	-6.8616
-36.153	-6.9150
-36.455	-6.9684
-36.757	-7.0218
-37.059	-7.0752
-37.361	-7.1286
-37.662	-7.1820
-37.964	-7.2354
-38.266	-7.2889
-38.568	-7.3424
-38.870	-7.3959
-39.172	-7.4494
-39.474	-7.5029
-39.776	-7.5564
-40.078	-7.6099
-40.380	-7.6634
-40.682	-7.7169
-40.984	-7.7704
-41.286	-7.8239
-41.588	-7.8773
-41.890	-7.9308
-42.192	-7.9843
-42.494	-8.0378
-42.796	-8.0913
-43.098	-8.1448
-43.400	-8.1983
-43.702	-8.2518
-44.004	-8.3053
-44.305	-8.3588
-44.607	-8.4123
-44.909	-8.4658
-45.211	-8.5193
-45.513	-8.5727
-45.815	-8.6262
-46.117	-8.6797
-46.419	-8.7332
-46.721	-8.7867
-47.023	-8.8402
-47.325	-8.8937
-47.627	-8.9472
-47.929	-9.0007
-48.231	-9.0542
-48.533	-9.1077
-48.835	-9.1612
-49.137	-9.2147
-49.439	-9.2682
-49.741	-9.3216
-50.043	-9.3751
-50.345	-9.4286
-50.647	-9.4821
-50.948	-9.5356
-51.250	-9.5891
-51.552	-9.6426
-51.854	-9.6964
-52.156	-9.7502
-52.458	-9.8039
-52.760	-9.8577
-53.062	-9.9115
-53.364	-9.9653
-53.666	-10.019
-53.128	-10.026
-48.306	-10.012
-46.230	-10.008
-46.427	-10.008
-46.624	-10.009
-46.821	-10.010
-46.613	-9.9833
-45.616	-9.9328
-44.600	-9.8820
-43.585	-9.8311
-43.220	-9.7803
-42.967	-9.7294
-42.713	-9.6785
-42.460	-9.6277
-42.207	-9.5768
-41.953	-9.5260
-41.700	-9.4751
-41.447	-9.4221
-41.193	-9.3686
-40.940	-9.3151
-40.686	-9.2617
-40.433	-9.2082
-40.180	-9.1548
-39.926	-9.1013
-39.673	-9.0478
-39.420	-8.9944
-39.166	-8.9409
-38.913	-8.8874
-38.660	-8.8340
-38.406	-8.7805
-38.153	-8.7270
-37.899	-8.6736
-37.646	-8.6201
-37.393	-8.5667
-37.139	-8.5132
-36.886	-8.4597
-36.633	-8.4063
-36.379	-8.3528
-36.126	-8.2993
-35.873	-8.2459
-35.619	-8.1924
-35.366	-8.1390
-35.112	-8.0855
-34.859	-8.0320
-34.606	-7.9786
-34.352	-7.9251
-34.099	-7.8716
-33.846	-7.8182
-33.592	-7.7647
-33.339	-7.7112
-33.085	-7.6578
-32.832	-7.6043
-32.579	-7.5509
-32.325	-7.4974
-32.072	-7.4439
-31.819	-7.3905
-31.567	-7.3370
-31.342	-7.2835
-31.116	-7.2301
-30.890	-7.1766
-30.664	-7.1232
-30.438	-7.0697
-30.212	-7.0162
-29.986	-6.9628
-29.761	-6.9093
-29.535	-6.8558
-29.309	-6.8024
-29.083	-6.7489
-28.857	-6.6954
-28.631	-6.6420
-28.406	-6.5885
-28.180	-6.5351
-27.954	-6.4816
-27.728	-6.4281
-27.482	-6.3747
-27.234	-6.3212
-26.987	-6.2677
-26.739	-6.2143
-26.491	-6.1608
-26.243	-6.1074
-25.996	-6.0539
-25.748	-6.0004
-25.500	-5.9470
-25.253	-5.8935
-25.005	-5.8400
-24.757	-5.7866
-24.509	-5.7331
-24.262	-5.6796
-24.014	-5.6262
-23.766	-5.5727
-23.519	-5.5193
-23.271	-5.4658
-23.023	-5.4123
-22.775	-5.3589
-22.528	-5.3054
-22.280	-5.2519
-22.032	-5.1985
-21.785	-5.1450
-21.537	-5.0916
-21.289	-5.0381
-21.041	-4.9846
-20.794	-4.9312
-20.546	-4.8777
-20.298	-4.8242
-20.050	-4.7708
-19.803	-4.7173
-19.555	-4.6638
-19.307	-4.6104
-19.060	-4.5569
-18.787	-4.5035
-18.510	-4.4500
-18.233	-4.3965
-17.956	-4.3431
-17.679	-4.2896
-17.402	-4.2361
-17.125	-4.1827
-16.847	-4.1292
-16.570	-4.0758
-16.293	-4.0223
-16.016	-3.9688
-15.739	-3.9154
-15.462	-3.8619
-15.185	-3.8084
-14.908	-3.7550
-14.631	-3.7015
-14.354	-3.6481
-14.076	-3.5946
-13.799	-3.5411
-13.522	-3.4877
-13.245	-3.4342
-12.968	-3.3807
-12.691	-3.3273
-12.414	-3.2738
-12.137	-3.2203
-11.892	-3.1669
-11.651	-3.1134
-11.411	-3.0600
-11.170	-3.0065
-10.930	-2.9530
-10.689	-2.8996
-10.448	-2.8461
-10.208	-2.7926
-9.9670	-2.7392
-9.7263	-2.6857
-9.4857	-2.6323
-9.2451	-2.5788
-9.0044	-2.5253
-8.7638	-2.4719
-8.5231	-2.4184
-8.2825	-2.3649
-8.0314	-2.3115
-7.7706	-2.2580
-7.5098	-2.2045
-7.2489	-2.1511
-6.9881	-2.0976
-6.7273	-2.0442
-6.4665	-1.9907
-6.2057	-1.9373
-5.9448	-1.8839
-5.6797	-1.8305
-5.3923	-1.7770
-5.1049	-1.7236
-4.8175	-1.6702
-4.5300	-1.6168
-4.2426	-1.5633
-3.9552	-1.5099
-3.6678	-1.4565
-3.3804	-1.4031
-3.0930	-1.3496
-2.8055	-1.2962
-2.5181	-1.2428
-2.2307	-1.1893
-1.9433	-1.1359
-1.6559	-1.0825
-1.3685	-1.0291
-1.0811	-0.97564
-0.79364	-0.92222
-0.50622	-0.86879
-0.23419	-0.81537
0.019131	-0.76194
0.27245	-0.70851
0.52578	-0.65508
0.77910	-0.60162
1.0324	-0.54816
1.2858	-0.49470
1.5391	-0.44124
1.7924	-0.38778
2.0457	-0.33432
2.2990	-0.28087
2.5524	-0.22741
2.8057	-0.17395
3.0590	-0.12049
3.3123	-0.067031
3.5657	-0.013572
3.8190	0.039887
4.0723	0.093345
4.3256	0.14680
4.5790	0.20026
4.8323	0.25372
5.1030	0.30718
5.3997	0.36064
5.6963	0.41410
5.9930	0.46756
6.2897	0.52102
6.5863	0.57447
6.8830	0.62793
7.1797	0.68139
7.4764	0.73485
7.7730	0.78831
8.0697	0.84177
8.3664	0.89523
8.6631	0.94869
8.9597	1.0021
9.2564	1.0556
9.5531	1.1091
9.8497	1.1625
10.146	1.2160
10.443	1.2694
10.740	1.3229
11.036	1.3763
11.329	1.4298
11.613	1.4832
11.896	1.5366
12.180	1.5900
12.464	1.6434
12.748	1.6968
13.032	1.7502
13.316	1.8036
13.600	1.8570
13.884	1.9104
14.168	1.9638
14.451	2.0172
14.735	2.0706
15.019	2.1240
15.303	2.1774
15.587	2.2308
15.871	2.2842
16.155	2.3376
16.439	2.3910
16.723	2.4445
17.006	2.4979
17.290	2.5513
17.584	2.6047
17.888	2.6581
18.191	2.7115
18.494	2.7649
18.798	2.8183
19.101	2.8717
19.404	2.9251
19.708	2.9785
20.011	3.0319
20.315	3.0853
20.618	3.1387
20.921	3.1921
21.225	3.2455
21.528	3.2989
21.816	3.3523
22.088	3.4057
22.361	3.4591
22.633	3.5126
22.905	3.5660
23.177	3.6194
23.449	3.6728
23.722	3.7262
23.994	3.7796
24.266	3.8330
24.538	3.8864
24.810	3.9398
25.083	3.9932
25.355	4.0466
25.627	4.1000
25.899	4.1534
26.171	4.2074
26.444	4.2615
26.716	4.3156
26.988	4.3692
27.260	4.4227
27.532	4.4761
27.805	4.5296
28.077	4.5831
28.349	4.6365
28.621	4.6900
28.893	4.7435
29.166	4.7969
29.438	4.8504
29.710	4.9039
29.982	4.9574
30.254	5.0108
30.527	5.0643
30.799	5.1178
31.071	5.1712
31.343	5.2247
31.615	5.2782
31.888	5.3316
32.160	5.3851
32.423	5.4386
32.676	5.4921
32.930	5.5455
33.184	5.5990
33.438	5.6525
33.691	5.7059
33.945	5.7594
34.199	5.8129
34.453	5.8663
34.707	5.9198
34.960	5.9733
35.214	6.0268
35.468	6.0802
35.722	6.1337
35.975	6.1872
36.229	6.2406
36.483	6.2941
36.737	6.3476
36.991	6.4010
37.244	6.4545
37.498	6.5080
37.746	6.5614
37.985	6.6149
38.225	6.6684
38.465	6.7219
38.705	6.7734
38.945	6.8234
39.185	6.8769
39.425	6.9303
39.665	6.9838
39.904	7.0373
40.144	7.0908
40.384	7.1442
40.624	7.1977
40.864	7.2502
41.104	7.2949
41.494	7.3531
41.969	7.4205
42.444	7.4728
42.918	7.5250
43.393	7.5772
43.868	7.6294
44.342	7.6816
44.817	7.7338
45.052	7.7860
45.244	7.8382
45.435	7.8904
45.626	7.9426
45.818	7.9950
46.009	8.0486
46.200	8.1022
46.392	8.1558
46.583	8.2094
46.775	8.2629
46.966	8.3165
47.157	8.3701
47.349	8.4237
47.540	8.4773
47.731	8.5309
47.923	8.5844
48.114	8.6380
48.305	8.6916
48.497	8.7452
48.688	8.7988
48.968	8.8524
49.314	8.9059
49.660	8.9595
50.006	9.0131
50.352	9.0667
50.698	9.1203
51.044	9.1738
51.390	9.2274
51.736	9.2810
52.082	9.3346
52.428	9.3882
52.774	9.4418
53.120	9.4953
53.466	9.5489
53.812	9.6025
54.158	9.6561
54.504	9.7097
54.850	9.7632
55.004	9.8168
55.052	9.8704
55.100	9.9240
55.148	9.9776
55.195	10.019
54.398	9.9807
51.457	9.9141
50.820	9.8581
50.184	9.8084
49.548	9.7586
48.912	9.7089
48.276	9.6592
47.640	9.6094
47.140	9.5597
46.855	9.5077
46.569	9.4543
46.284	9.4008
45.999	9.3474
45.713	9.2940
45.428	9.2406
45.142	9.1871
44.857	9.1337
44.571	9.0803
44.286	9.0268
44.001	8.9734
43.715	8.9200
43.430	8.8666
43.144	8.8131
42.859	8.7597
42.573	8.7063
42.288	8.6528
42.003	8.5994
41.717	8.5460
41.432	8.4926
41.146	8.4391
40.861	8.3857
40.575	8.3323
40.290	8.2789
40.005	8.2254
39.719	8.1720
39.434	8.1186
39.148	8.0651
38.863	8.0117
38.577	7.9583
38.292	7.9049
38.006	7.8514
37.721	7.7980
37.436	7.7446
37.150	7.6912
36.865	7.6377
36.579	7.5843
36.294	7.5309
36.008	7.4774
35.723	7.4240
35.438	7.3706
35.152	7.3172
34.867	7.2637
34.581	7.2103
34.296	7.1569
34.010	7.1035
33.725	7.0500
33.440	6.9966
33.154	6.9432
32.869	6.8897
32.583	6.8363
32.298	6.7829
32.012	6.7295
31.727	6.6760
31.442	6.6226
31.156	6.5692
30.871	6.5158
30.585	6.4623
30.300	6.4089
30.014	6.3555
29.729	6.3020
29.444	6.2486
29.158	6.1952
28.873	6.1418
28.587	6.0883
28.302	6.0349
28.016	5.9815
27.731	5.9280
27.445	5.8746
27.160	5.8212
26.875	5.7678
26.589	5.7143
26.304	5.6609
26.018	5.6075
25.733	5.5541
25.447	5.5006
25.162	5.4472
24.877	5.3938
24.591	5.3403
24.306	5.2869
24.020	5.2335
23.735	5.1801
23.449	5.1266
23.164	5.0732
22.879	5.0198
22.593	4.9664
22.308	4.9129
22.022	4.8595
21.737	4.8061
21.451	4.7526
21.166	4.6992
20.881	4.6458
20.595	4.5924
20.310	4.5389
20.024	4.4855
19.739	4.4321
19.453	4.3787
19.168	4.3252
18.883	4.2718
18.597	4.2184
18.312	4.1649
18.026	4.1115
17.741	4.0581
17.455	4.0047
17.170	3.9512
16.884	3.8978
16.599	3.8444
16.314	3.7910
16.028	3.7375
15.743	3.6841
15.457	3.6307
15.172	3.5772
14.888	3.5238
14.607	3.4704
14.327	3.4170
14.046	3.3635
13.765	3.3101
13.484	3.2567
13.204	3.2033
12.923	3.1498
12.642	3.0964
12.362	3.0430
12.081	2.9895
11.800	2.9361
11.519	2.8827
11.239	2.8293
10.958	2.7758
10.677	2.7224
10.396	2.6690
10.116	2.6155
9.8350	2.5621
9.5543	2.5087
9.2736	2.4553
8.9928	2.4018
8.7121	2.3484
8.4314	2.2950
8.1506	2.2416
7.8699	2.1881
7.5892	2.1347
7.3085	2.0813
7.0277	2.0278
6.7470	1.9744
6.4663	1.9210
6.1856	1.8676
5.9048	1.8141
5.6241	1.7607
5.3434	1.7073
5.0627	1.6539
4.7819	1.6004
4.5012	1.5470
4.2205	1.4936
3.9398	1.4401
3.6590	1.3867
3.3783	1.3333
3.0976	1.2799
2.8169	1.2264
2.5361	1.1730
2.2554	1.1196
1.9747	1.0662
1.6939	1.0127
1.4132	0.95930
1.1325	0.90587
0.85177	0.85068
0.57104	0.79328
0.29031	0.73942
0.0095885	0.68602
-0.27114	0.63261
-0.55186	0.57921
-0.83259	0.52581
-1.1133	0.47241
-1.3940	0.41901
-1.6748	0.36560
-1.9555	0.31220
-2.2362	0.25880
-2.5169	0.20540
-2.7977	0.15199
-3.0784	0.098592
-3.3591	0.045190
-3.6399	-0.0082124
-3.9206	-0.061615
-4.2013	-0.11502
-4.4820	-0.16842
-4.7628	-0.22182
-5.0435	-0.27522
-5.3242	-0.32863
-5.6049	-0.38203
-5.8857	-0.43543
-6.1664	-0.48883
-6.4471	-0.54223
-6.7278	-0.59564
-7.0086	-0.64904
-7.2893	-0.70244
-7.5700	-0.75584
-7.8507	-0.80925
-8.1315	-0.86265
-8.4122	-0.91605
-8.6929	-0.96945
-8.9737	-1.0229
-9.2544	-1.0763
-9.5351	-1.1297
-9.8158	-1.1831
-10.097	-1.2365
-10.377	-1.2899
-10.658	-1.3433
-10.939	-1.3967
-11.219	-1.4501
-11.500	-1.5035
-11.781	-1.5569
-12.062	-1.6103
-12.342	-1.6627
-12.623	-1.7145
-12.904	-1.7669
-13.185	-1.8204
-13.465	-1.8738
-13.746	-1.9272
-14.029	-1.9807
-14.314	-2.0341
-14.600	-2.0876
-14.886	-2.1410
-15.171	-2.1944
-15.457	-2.2479
-15.743	-2.3013
-16.028	-2.3548
-16.314	-2.4082
-16.600	-2.4616
-16.885	-2.5151
-17.171	-2.5685
-17.457	-2.6220
-17.742	-2.6754
-18.028	-2.7288
-18.314	-2.7823
-18.599	-2.8357
-18.885	-2.8891
-19.171	-2.9426
-19.456	-2.9960
-19.742	-3.0495
-20.028	-3.1029
-20.313	-3.1563
-20.599	-3.2098
-20.885	-3.2632
-21.170	-3.3167
-21.456	-3.3701
-21.741	-3.4235
-22.027	-3.4770
-22.313	-3.5304
-22.598	-3.5839
-22.884	-3.6373
-23.170	-3.6907
-23.455	-3.7442
-23.741	-3.7976
-24.027	-3.8511
-24.312	-3.9045
-24.598	-3.9579
-24.884	-4.0114
-25.169	-4.0648
-25.455	-4.1183
-25.741	-4.1717
-26.026	-4.2251
-26.312	-4.2786
-26.598	-4.3320
-26.883	-4.3855
-27.169	-4.4389
-27.455	-4.4923
-27.740	-4.5458
-28.026	-4.5992
-28.311	-4.6527
-28.597	-4.7061
-28.883	-4.7595
-29.168	-4.8130
-29.454	-4.8664
-29.740	-4.9199
-30.025	-4.9733
-30.311	-5.0267
-30.597	-5.0802
-30.882	-5.1336
-31.168	-5.1870
-31.454	-5.2405
-31.739	-5.2939
-32.025	-5.3474
-32.311	-5.4008
-32.596	-5.4542
-32.882	-5.5077
-33.168	-5.5611
-33.453	-5.6146
-33.739	-5.6680
-34.025	-5.7214
-34.313	-5.7749
-34.601	-5.8283
-34.889	-5.8818
-35.177	-5.9352
-35.465	-5.9886
-35.752	-6.0421
-36.040	-6.0955
-36.328	-6.1490
-36.616	-6.2024
-36.904	-6.2558
-37.192	-6.3093
-37.480	-6.3627
-37.767	-6.4162
-38.055	-6.4696
-38.343	-6.5230
-38.631	-6.5765
-38.919	-6.6299
-39.207	-6.6834
-39.495	-6.7368
-39.783	-6.7902
-40.070	-6.8437
-40.358	-6.8971
-40.646	-6.9506
-40.934	-7.0040
-41.222	-7.0574
-41.510	-7.1109
-41.798	-7.1643
-42.086	-7.2178
-42.373	-7.2713
-42.661	-7.3248
-42.949	-7.3782
-43.239	-7.4317
-43.532	-7.4852
-43.826	-7.5386
-44.120	-7.5921
-44.413	-7.6456
-44.707	-7.6991
-45.000	-7.7525
-45.294	-7.8060
-45.587	-7.8595
-45.881	-7.9129
-46.175	-7.9664
-46.468	-8.0199
-46.762	-8.0734
-47.055	-8.1268
-47.349	-8.1803
-47.642	-8.2338
-47.936	-8.2872
-48.230	-8.3407
-48.523	-8.3942
-48.817	-8.4477
-49.115	-8.5011
-49.601	-8.5546
-50.088	-8.6081
-50.451	-8.6616
-50.757	-8.7150
-51.063	-8.7685
-51.369	-8.8220
-51.675	-8.8754
-51.981	-8.9289
-52.287	-8.9824
-52.593	-9.0359
-52.899	-9.0893
-53.205	-9.1428
-53.511	-9.1963
-53.817	-9.2497
-54.123	-9.3032
-54.429	-9.3567
-54.735	-9.4102
-55.041	-9.4636
-55.347	-9.5171
-55.653	-9.5706
-55.959	-9.6241
-56.265	-9.6775
-56.571	-9.7310
-56.877	-9.7845
-57.183	-9.8379
-57.490	-9.8914
-57.796	-9.9449
-58.102	-9.9884
-58.211	-10.013
-51.943	-9.9543
-44.653	-9.8982
-43.602	-9.8577
-42.891	-9.8126
-42.536	-9.7901