File: text_data/C3.txt
Load (N)	Extension (mm)

1.5135	-0.34454
1.5366	-0.34454
1.5597	-0.34454
1.5828	-0.34454
1.6060	-0.34454
1.6291	-0.34454
1.6522	-0.33699
3.5454	-0.22319
4.1997	-0.084229
4.8540	0.061326
4.1212	0.097302
4.5393	0.10317
3.9384	0.064892
2.3689	-0.066640
0.79929	-0.20977
-0.50145	-0.35501
-1.5617	-0.50127
-2.6220	-0.64930
-3.6823	-0.79873
-4.7426	-0.94815
-5.8029	-1.0976
-6.8632	-1.2470
-7.9235	-1.3964
-8.9838	-1.5459
-10.044	-1.6953
-11.104	-1.8443
-12.165	-1.9934
-13.225	-2.1424
-14.285	-2.2915
-15.346	-2.4405
-16.406	-2.5890
-17.466	-2.7371
-18.526	-2.8848
-19.587	-3.0327
-20.647	-3.1805
-21.678	-3.3283
-22.686	-3.4761
-23.694	-3.6240
-24.701	-3.7718
-25.709	-3.9196
-26.717	-4.0675
-27.724	-4.2158
-28.732	-4.3641
-29.740	-4.5124
-30.747	-4.6607
-31.755	-4.8090
-32.763	-4.9573
-33.770	-5.1056
-34.778	-5.2538
-35.786	-5.4021
-36.793	-5.5503
-37.801	-5.6985
-38.809	-5.8466
-39.816	-5.9948
-40.824	-6.1430
-41.832	-6.2912
-42.839	-6.4393
-43.847	-6.5875
-44.855	-6.7356
-45.862	-6.8838
-46.870	-7.0319
-47.878	-7.1800
-48.885	-7.3281
-49.893	-7.4763
-50.901	-7.6244
-51.909	-7.7725
-52.916	-7.9206
-53.924	-8.0688
-54.976	-8.2169
-56.032	-8.3650
-57.087	-8.5132
-58.143	-8.6613
-59.177	-8.8094
-60.076	-8.9575
-60.976	-9.1056
-61.872	-9.2536
-62.760	-9.4016
-63.649	-9.5495
-64.537	-9.6975
-65.425	-9.8455
-66.314	-9.9935
-67.202	-10.141
-68.091	-10.289
-69.025	-10.437
-70.015	-10.585
-71.005	-10.733
-71.995	-10.881
-72.985	-11.029
-73.975	-11.177
-74.966	-11.325
-75.956	-11.473
-76.946	-11.621
-77.936	-11.769
-78.926	-11.917
-79.916	-12.065
-80.907	-12.213
-81.897	-12.361
-82.887	-12.509
-83.877	-12.657
-84.867	-12.805
-85.857	-12.953
-86.911	-13.101
-88.042	-13.249
-89.173	-13.397
-90.305	-13.545
-91.436	-13.693
-92.568	-13.841
-93.699	-13.989
-94.831	-14.137
-95.162	-14.285
-95.490	-14.433
-96.568	-14.582
-97.646	-14.731
-98.724	-14.880
-99.802	-15.028
-100.88	-15.176
-101.96	-15.324
-103.04	-15.471
-104.11	-15.619
-105.19	-15.767
-106.27	-15.915
-107.35	-16.063
-108.43	-16.211
-109.50	-16.359
-110.58	-16.507
-111.66	-16.655
-112.74	-16.803
-113.82	-16.952
-114.89	-17.100
-115.97	-17.248
-117.05	-17.396
-118.13	-17.544
-119.21	-17.692
-120.28	-17.840
-121.36	-17.988
-122.44	-18.136
-123.52	-18.284
-124.59	-18.432
-125.67	-18.580
-126.75	-18.728
-127.83	-18.876
-128.91	-19.024
-129.98	-19.173
-131.06	-19.321
-132.14	-19.469
-133.22	-19.617
-134.30	-19.765
-135.37	-19.913
-136.51	-20.061
-137.88	-20.209
-139.25	-20.357
-140.62	-20.505
-142.00	-20.653
-143.37	-20.801
-144.74	-20.949
-146.57	-21.097
-148.99	-21.245
-151.41	-21.393
-153.82	-21.541
-156.24	-21.688
-159.34	-21.836
-169.37	-21.984
-181.57	-22.132
-196.99	-22.280
-207.80	-22.428
-216.78	-22.576
-225.75	-22.724
-240.14	-22.871
-257.85	-23.019
-285.51	-23.166
-318.52	-23.312
-361.31	-23.459
-418.78	-23.605
-476.25	-23.750
-531.94	-23.833
-516.43	-23.827
-496.57	-23.794
-402.25	-23.660
-307.93	-23.521
-242.46	-23.374
-203.27	-23.227
-164.08	-23.080
-129.96	-22.932
-125.12	-22.785
-120.27	-22.638
-115.43	-22.491
-110.58	-22.344
-105.74	-22.197
-100.89	-22.049
-100.06	-21.902
-99.408	-21.755
-98.752	-21.607
-98.095	-21.459
-97.439	-21.311
-96.782	-21.163
-96.126	-21.015
-95.469	-20.867
-94.813	-20.719
-94.156	-20.571
-93.500	-20.422
-92.843	-20.274
-92.187	-20.126
-91.530	-19.978
-90.874	-19.830
-90.217	-19.682
-89.561	-19.534
-88.904	-19.386
-88.248	-19.238
-87.591	-19.090
-86.935	-18.942
-86.278	-18.794
-85.622	-18.646
-84.965	-18.498
-84.309	-18.350
-83.652	-18.202
-82.996	-18.054
-82.339	-17.906
-81.683	-17.758
-81.026	-17.610
-80.370	-17.462
-79.713	-17.313
-79.057	-17.165
-78.400	-17.017
-77.744	-16.869
-77.087	-16.721
-76.431	-16.573
-75.774	-16.425
-75.118	-16.277
-74.279	-16.129
-69.685	-15.981
-69.041	-15.833
-68.397	-15.684
-67.754	-15.536
-67.110	-15.387
-66.466	-15.239
-65.823	-15.091
-65.179	-14.943
-64.535	-14.795
-63.892	-14.647
-63.248	-14.499
-62.604	-14.351
-61.961	-14.203
-61.317	-14.055
-60.673	-13.906
-60.030	-13.758
-59.386	-13.610
-58.742	-13.462
-58.099	-13.314
-57.455	-13.166
-56.811	-13.018
-56.168	-12.870
-55.524	-12.722
-54.816	-12.574
-53.530	-12.425
-52.245	-12.277
-51.188	-12.129
-50.693	-11.981
-50.199	-11.833
-49.705	-11.685
-49.210	-11.537
-48.654	-11.389
-47.883	-11.241
-47.113	-11.093
-46.342	-10.944
-45.571	-10.796
-44.801	-10.648
-44.030	-10.500
-43.259	-10.352
-42.488	-10.204
-41.718	-10.057
-41.180	-9.9086
-40.658	-9.7607
-40.135	-9.6128
-39.528	-9.4649
-38.710	-9.3170
-37.891	-9.1691
-37.073	-9.0212
-36.254	-8.8733
-35.436	-8.7254
-34.617	-8.5774
-33.976	-8.4293
-33.375	-8.2812
-32.775	-8.1331
-32.174	-7.9851
-31.573	-7.8370
-30.973	-7.6889
-30.372	-7.5408
-29.667	-7.3927
-28.932	-7.2446
-28.198	-7.0966
-27.158	-6.9485
-25.670	-6.8004
-24.974	-6.6523
-24.279	-6.5042
-23.584	-6.3561
-22.888	-6.2081
-22.193	-6.0600
-21.498	-5.9119
-20.803	-5.7640
-20.108	-5.6161
-19.413	-5.4681
-18.718	-5.3202
-18.022	-5.1723
-17.327	-5.0243
-16.632	-4.8764
-15.937	-4.7285
-15.220	-4.5805
-14.501	-4.4326
-13.783	-4.2847
-13.064	-4.1353
-12.346	-3.9852
-11.627	-3.8373
-10.908	-3.6893
-10.190	-3.5413
-9.4712	-3.3934
-8.7526	-3.2454
-8.0340	-3.0974
-7.3154	-2.9495
-6.5968	-2.8015
-5.8782	-2.6535
-5.0573	-2.5056
-4.1641	-2.3576
-3.2709	-2.2096
-2.5762	-2.0617
-1.9398	-1.9137
-1.3033	-1.7657
-0.66687	-1.6178
-0.030434	-1.4698
0.60601	-1.3215
1.2424	-1.1732
1.8789	-1.0248
2.7414	-0.87115
3.6300	-0.72448
4.5186	-0.57781
5.3137	-0.43114
5.8117	-0.28447
6.3096	-0.13666
6.8076	0.011377
7.3055	0.15942
7.8035	0.30745
8.3014	0.45549
8.7994	0.60353
9.4021	0.75157
10.189	0.89961
10.976	1.0476
11.763	1.1957
12.550	1.3437
13.336	1.4918
14.123	1.6398
14.910	1.7878
15.697	1.9359
16.484	2.0839
17.271	2.2320
18.058	2.3800
18.845	2.5280
19.631	2.6761
20.459	2.8241
21.293	2.9721
22.127	3.1202
22.961	3.2682
23.684	3.4163
24.398	3.5643
25.112	3.7123
25.826	3.8604
26.540	4.0084
27.254	4.1618
27.968	4.3096
28.755	4.4575
29.695	4.6053
30.636	4.7531
31.586	4.9009
32.535	5.0487
33.484	5.1965
34.434	5.3443
35.383	5.4922
36.333	5.6401
37.282	5.7880
38.027	5.9360
38.550	6.0840
39.073	6.2319
39.596	6.3799
40.119	6.5279
40.642	6.6758
41.352	6.8238
42.201	6.9718
43.050	7.1197
43.899	7.2677
44.748	7.4157
45.597	7.5636
46.445	7.7116
47.395	7.8596
48.633	8.0075
49.865	8.1555
50.325	8.3035
50.784	8.4514
51.243	8.5994
51.826	8.7474
52.639	8.8953
53.451	9.0436
54.264	9.1944
55.077	9.3423
55.889	9.4901
56.702	9.6379
57.797	9.7857
59.081	9.9336
60.365	10.081
61.464	10.229
61.924	10.377
62.384	10.525
62.843	10.673
63.303	10.821
63.930	10.969
64.769	11.117
65.608	11.265
66.447	11.413
67.286	11.555
68.965	11.709
68.848	11.865
69.705	12.009
70.562	12.153
71.418	12.300
72.275	12.448
73.132	12.596
73.988	12.744
74.845	12.893
75.702	13.041
76.559	13.189
77.515	13.337
78.618	13.485
79.721	13.633
80.823	13.781
81.926	13.929
82.929	14.077
83.741	14.226
84.554	14.374
85.366	14.522
86.178	14.670
86.990	14.818
87.802	14.966
88.615	15.114
89.427	15.262
90.234	15.410
90.966	15.558
91.698	15.707
92.431	15.855
93.163	16.003
93.895	16.151
94.627	16.299
95.359	16.447
96.091	16.595
96.823	16.743
97.555	16.891
98.288	17.039
99.409	17.187
100.60	17.335
101.65	17.483
102.69	17.631
103.73	17.779
104.77	17.927
105.92	18.075
107.14	18.223
108.35	18.371
109.57	18.519
110.74	18.667
111.86	18.815
112.97	18.963
114.08	19.111
115.20	19.259
116.31	19.407
117.43	19.555
118.54	19.703
119.65	19.851
120.77	20.000
121.88	20.150
123.18	20.298
124.49	20.446
125.79	20.594
127.06	20.742
127.77	20.890
128.48	21.038
129.19	21.186
129.90	21.334
131.09	21.482
132.38	21.630
133.67	21.778
134.96	21.926
136.24	22.074
137.53	22.222
139.38	22.370
141.27	22.518
142.39	22.667
143.14	22.815
143.89	22.963
144.64	23.111
145.50	23.259
146.92	23.407
148.35	23.555
149.77	23.703
151.19	23.851
152.61	23.999
154.03	24.147
156.23	24.295
158.45	24.443
159.52	24.591
160.18	24.739
160.84	24.887
161.50	25.035
162.17	25.183
163.22	25.331
164.48	25.479
165.73	25.627
166.98	25.775
168.24	25.923
169.87	26.071
172.29	26.221
174.71	26.367
177.14	26.515
179.39	26.663
180.18	26.811
180.96	26.959
181.75	27.107
182.54	27.255
183.33	27.403
184.69	27.551
186.66	27.699
188.63	27.847
190.60	27.995
192.57	28.142
195.26	28.291
198.26	28.439
201.02	28.587
202.54	28.735
204.06	28.883
205.58	29.031
207.10	29.180
208.62	29.328
210.14	29.476
211.66	29.624
213.18	29.772
214.70	29.920
216.75	30.069
219.91	30.217
223.07	30.365
225.57	30.513
227.41	30.661
229.25	30.809
231.09	30.957
232.93	31.105
234.77	31.253
236.61	31.401
239.05	31.549
242.14	31.697
245.24	31.845
248.34	31.993
253.10	32.141
258.23	32.289
263.37	32.437
268.50	32.585
272.63	32.733
276.08	32.881
279.53	33.029
282.98	33.177
287.66	33.325
292.41	33.473
297.16	33.620
301.91	33.768
308.66	33.915
315.42	34.063
322.17	34.211
328.92	34.358
335.67	34.506
342.53	34.654
350.35	34.801
358.18	34.949
365.48	35.096
371.41	35.244
377.35	35.392
378.62	35.539
390.24	35.687
401.85	35.835
413.47	35.982
425.08	36.130
436.70	36.277
448.31	36.425
459.93	36.573
471.61	36.720
485.69	36.868
473.51	36.837
421.42	36.695
379.92	36.552
353.23	36.404
326.53	36.256
304.02	36.108
292.51	35.960
280.99	35.812
269.47	35.664
257.95	35.516
249.97	35.367
245.60	35.219
241.24	35.071
236.87	34.923
232.51	34.775
228.14	34.627
223.77	34.479
219.41	34.331
215.14	34.183
212.57	34.035
210.00	33.887
207.43	33.739
204.86	33.591
202.29	33.443
199.72	33.295
197.15	33.147
194.58	32.999
192.66	32.851
190.81	32.703
188.96	32.555
187.12	32.407
185.27	32.259
183.42	32.110
181.57	31.962
180.02	31.814
178.70	31.666
177.37	31.518
176.04	31.370
174.71	31.222
173.38	31.074
172.05	30.926
170.72	30.778
169.39	30.630
168.06	30.482
166.73	30.334
165.40	30.186
164.11	30.038
162.96	29.890
161.80	29.742
160.65	29.594
159.50	29.446
158.34	29.298
157.19	29.150
156.04	29.003
154.88	28.855
153.73	28.707
152.58	28.559
151.42	28.411
150.27	28.263
149.12	28.115
147.98	27.967
146.94	27.818
145.89	27.670
144.85	27.522
143.81	27.374
142.76	27.226
141.72	27.078
140.68	26.930
139.64	26.782
138.59	26.634
137.55	26.486
136.51	26.338
135.46	26.190
134.42	26.042
133.43	25.894
132.47	25.746
131.51	25.598
130.54	25.450
129.58	25.302
128.62	25.154
127.66	25.006
126.69	24.858
125.73	24.710
124.77	24.562
123.81	24.414
122.84	24.265
121.88	24.115
120.92	23.967
119.96	23.819
118.99	23.671
118.03	23.523
117.07	23.375
116.11	23.227
115.14	23.079
114.18	22.931
113.22	22.783
112.26	22.635
111.29	22.487
110.39	22.339
109.48	22.191
108.58	22.043
107.67	21.894
106.77	21.746
105.86	21.598
104.95	21.450
104.05	21.302
103.14	21.154
102.24	21.006
101.33	20.858
100.43	20.710
99.520	20.562
98.615	20.414
97.709	20.266
96.803	20.118
95.897	19.970
94.992	19.821
94.086	19.673
93.180	19.525
92.274	19.377
91.369	19.229
90.463	19.081
89.557	18.933
88.651	18.785
87.746	18.637
86.840	18.489
85.951	18.341
85.083	18.193
84.216	18.045
83.348	17.897
82.480	17.748
81.612	17.600
80.745	17.452
79.877	17.304
79.009	17.156
78.142	17.008
77.274	16.860
76.406	16.712
75.538	16.564
74.671	16.416
73.803	16.268
72.935	16.120
72.068	15.972
71.200	15.823
70.332	15.675
69.465	15.527
68.601	15.379
67.737	15.232
66.874	15.084
66.010	14.936
65.146	14.788
64.282	14.640
63.419	14.492
62.555	14.344
61.691	14.197
60.839	14.049
60.001	13.901
59.164	13.753
58.326	13.605
57.488	13.456
56.650	13.307
55.812	13.159
54.974	13.011
54.136	12.863
53.298	12.715
52.460	12.567
51.623	12.419
50.785	12.270
49.947	12.122
49.109	11.974
48.271	11.826
47.433	11.678
46.595	11.530
45.757	11.382
44.919	11.233
44.081	11.085
43.244	10.937
42.406	10.789
41.568	10.641
40.730	10.493
39.892	10.345
39.054	10.196
38.216	10.048
37.378	9.9002
36.540	9.7521
35.702	9.6039
34.865	9.4558
34.027	9.3077
33.189	9.1595
32.351	9.0114
31.513	8.8633
30.675	8.7151
30.197	8.5670
29.346	8.4190
28.494	8.2709
27.643	8.1228
26.792	7.9748
25.941	7.8267
25.090	7.6786
24.238	7.5305
23.387	7.3825
22.566	7.2344
21.748	7.0863
20.930	6.9383
20.112	6.7902
19.294	6.6421
18.476	6.4941
17.658	6.3460
16.840	6.1979
16.022	6.0499
15.204	5.9018
14.386	5.7537
13.568	5.6057
12.750	5.4576
11.932	5.3095
11.114	5.1614
10.296	5.0134
9.4778	4.8653
8.6598	4.7172
7.8418	4.5692
7.0238	4.4211
6.2058	4.2730
5.3878	4.1250
4.7036	3.9769
4.4412	3.8288
3.5595	3.6808
2.6778	3.5327
1.7961	3.3846
0.91443	3.2365
0.032728	3.0885
-0.84897	2.9404
-1.7307	2.7923
-2.6124	2.6442
-3.4941	2.4961
-4.3163	2.3480
-5.1372	2.1999
-5.9580	2.0518
-6.7788	1.9038
-7.5997	1.7557
-8.4205	1.6076
-9.2414	1.4595
-10.062	1.3114
-10.883	1.1633
-11.609	1.0152
-12.293	0.86713
-13.002	0.71905
-13.848	0.57096
-14.694	0.42287
-15.540	0.27478
-16.386	0.12669
-17.232	-0.021394
-18.078	-0.16948
-18.921	-0.31757
-19.763	-0.46566
-20.605	-0.61375
-21.447	-0.76183
-22.289	-0.90992
-23.131	-1.0580
-23.973	-1.2061
-24.815	-1.3542
-25.657	-1.5023
-26.499	-1.6504
-27.341	-1.7985
-28.183	-1.9465
-29.025	-2.0946
-30.027	-2.2427
-31.209	-2.3907
-32.217	-2.5388
-33.052	-2.6869
-33.886	-2.8349
-34.779	-2.9830
-35.755	-3.1311
-36.732	-3.2792
-37.709	-3.4272
-38.685	-3.5753
-39.021	-3.7234
-39.500	-3.8718
-40.511	-4.0202
-41.522	-4.1686
-42.532	-4.3170
-43.543	-4.4654
-44.553	-4.6139
-45.564	-4.7620
-45.688	-4.9102
-46.491	-5.0583
-47.398	-5.2064
-48.306	-5.3546
-49.213	-5.5027
-50.120	-5.6508
-51.028	-5.7990
-51.942	-5.9471
-52.893	-6.0952
-53.844	-6.2433
-54.795	-6.3915
-55.746	-6.5396
-56.697	-6.6877
-57.648	-6.8359
-58.599	-6.9840
-59.550	-7.1321
-60.501	-7.2803
-60.506	-7.4284
-61.284	-7.5765
-62.062	-7.7245
-62.840	-7.8699
-63.618	-8.0178
-64.396	-8.1658
-65.175	-8.3139
-65.953	-8.4619
-66.731	-8.6099
-67.509	-8.7580
-68.287	-8.9060
-69.065	-9.0540
-69.903	-9.2021
-70.803	-9.3501
-71.703	-9.4981
-72.603	-9.6462
-73.504	-9.7942
-74.404	-9.9422
-75.304	-10.090
-76.204	-10.238
-77.104	-10.386
-78.004	-10.534
-78.904	-10.682
-79.804	-10.830
-80.705	-10.978
-81.605	-11.127
-82.505	-11.275
-83.405	-11.423
-84.305	-11.571
-85.205	-11.719
-86.105	-11.867
-87.005	-12.015
-87.906	-12.163
-88.806	-12.311
-89.706	-12.459
-90.606	-12.607
-91.506	-12.755
-92.406	-12.903
-93.316	-13.051
-94.430	-13.200
-95.543	-13.348
-96.656	-13.496
-97.770	-13.644
-98.883	-13.792
-99.997	-13.941
-101.11	-14.089
-102.16	-14.237
-103.14	-14.386
-104.12	-14.535
-105.10	-14.683
-106.07	-14.831
-107.05	-14.979
-108.03	-15.127
-109.01	-15.275
-109.99	-15.423
-110.96	-15.571
-111.94	-15.719
-112.92	-15.867
-113.90	-16.015
-114.88	-16.163
-115.85	-16.311
-116.83	-16.459
-117.81	-16.607
-118.79	-16.755
-119.97	-16.903
-121.16	-17.051
-122.34	-17.199
-123.53	-17.347
-124.71	-17.495
-125.89	-17.643
-127.08	-17.791
-128.26	-17.939
-129.45	-18.088
-130.63	-18.236
-131.81	-18.384
-133.10	-18.532
-134.79	-18.680
-136.26	-18.828
-136.63	-18.976
-137.61	-19.124
-139.03	-19.272
-140.46	-19.420
-141.89	-19.568
-143.32	-19.716
-144.74	-19.864
-146.19	-20.012
-147.92	-20.160
-149.65	-20.308
-151.37	-20.455
-153.10	-20.603
-154.83	-20.751
-156.55	-20.899
-158.28	-21.047
-160.77	-21.195
-166.45	-21.343
-172.12	-21.491
-177.80	-21.639
-183.48	-21.787
-189.80	-21.935
-200.50	-22.083
-211.20	-22.231
-221.90	-22.378
-232.60	-22.526
-243.30	-22.673
-254.51	-22.821
-267.49	-22.969
-280.47	-23.116
-304.23	-23.264
-348.22	-23.411
-395.03	-23.558
-451.43	-23.703
-514.38	-23.794
-382.78	-23.639
-341.36	-23.572