File: text_data/C4 -10.txt
Load (N)	Extension (mm)

9.6235
9.6290	0.043945
9.6345	0.043945
9.6400	0.043945
9.6455	0.043945
9.6509	0.043945
9.6564	0.043945
9.6619	0.043945
9.6674	0.043945
9.6729	0.043945
9.6784	0.043945
9.6838	0.043945
9.6893	0.043945
9.6948	0.043945
9.7003	0.043945
9.7058	0.043945
9.7112	0.043945
9.7167	0.043945
9.7222	0.042893
9.3732	0.021996
6.2305	-0.033899
3.7629	-0.080857
3.0653	-0.069227
8.4050	-0.048036
8.9302	-0.066358
3.8921	-0.099389
2.5184	-0.12423
3.1647	-0.11894
7.1264	-0.11276
6.9880	-0.11989
4.8877	-0.16462
1.3698	-0.21302
1.0118	-0.25639
0.65376	-0.30434
0.29574	-0.35357
-0.062277	-0.40414
-0.42030	-0.45679
-0.77831	-0.50943
-1.1363	-0.56207
-1.4944	-0.61472
-1.8524	-0.66736
-2.2104	-0.72000
-2.5684	-0.77264
-2.9264	-0.82529
-3.2844	-0.87793
-3.6425	-0.93057
-4.0005	-0.98322
-4.3585	-1.0359
-4.7165	-1.0886
-5.0745	-1.1414
-5.4326	-1.1941
-5.7906	-1.2469
-6.1486	-1.2996
-6.5066	-1.3524
-6.8646	-1.4051
-7.2226	-1.4579
-7.5807	-1.5105
-7.9387	-1.5630
-8.2967	-1.6155
-8.6547	-1.6680
-9.0127	-1.7206
-9.3708	-1.7741
-9.7288	-1.8270
-10.087	-1.8783
-10.445	-1.9297
-10.803	-1.9838
-11.161	-2.0379
-11.519	-2.0911
-11.877	-2.1436
-12.235	-2.1960
-12.593	-2.2485
-12.951	-2.3009
-13.309	-2.3530
-13.611	-2.4049
-13.913	-2.4568
-14.215	-2.5090
-14.517	-2.5615
-14.819	-2.6139
-15.121	-2.6664
-15.423	-2.7189
-15.725	-2.7714
-16.027	-2.8238
-16.329	-2.8763
-16.631	-2.9288
-16.933	-2.9812
-17.235	-3.0336
-17.537	-3.0857
-17.839	-3.1377
-18.141	-3.1911
-18.443	-3.2447
-18.745	-3.2975
-19.047	-3.3494
-19.349	-3.4013
-19.651	-3.4533
-19.953	-3.5054
-20.255	-3.5575
-20.557	-3.6097
-20.859	-3.6618
-21.161	-3.7139
-21.463	-3.7660
-21.765	-3.8181
-22.067	-3.8702
-22.369	-3.9223
-22.671	-3.9744
-22.973	-4.0267
-23.275	-4.0791
-23.577	-4.1314
-23.879	-4.1837
-24.181	-4.2360
-24.483	-4.2883
-24.785	-4.3407
-25.087	-4.3930
-25.389	-4.4453
-25.691	-4.4976
-25.993	-4.5499
-26.295	-4.6023
-26.597	-4.6546
-26.899	-4.7069
-27.201	-4.7592
-27.503	-4.8116
-27.805	-4.8639
-28.107	-4.9162
-28.409	-4.9685
-28.711	-5.0208
-29.013	-5.0732
-29.315	-5.1255
-29.617	-5.1778
-29.919	-5.2301
-30.221	-5.2824
-30.523	-5.3348
-30.825	-5.3871
-31.127	-5.4394
-31.429	-5.4917
-31.731	-5.5440
-32.033	-5.5964
-32.335	-5.6487
-32.637	-5.7010
-32.939	-5.7533
-33.241	-5.8057
-33.543	-5.8580
-33.845	-5.9103
-34.147	-5.9626
-34.449	-6.0149
-34.751	-6.0673
-35.053	-6.1196
-35.355	-6.1719
-35.657	-6.2242
-35.959	-6.2765
-36.261	-6.3289
-36.563	-6.3812
-36.865	-6.4335
-37.167	-6.4858
-37.469	-6.5381
-37.771	-6.5905
-38.073	-6.6428
-38.375	-6.6951
-38.677	-6.7474
-38.979	-6.7998
-39.281	-6.8521
-39.583	-6.9044
-39.885	-6.9567
-40.187	-7.0090
-40.489	-7.0614
-40.791	-7.1137
-41.093	-7.1660
-41.395	-7.2183
-41.697	-7.2706
-41.999	-7.3230
-42.301	-7.3753
-42.603	-7.4276
-42.905	-7.4812
-43.203	-7.5350
-43.494	-7.5888
-43.784	-7.6415
-44.075	-7.6937
-44.366	-7.7460
-44.656	-7.7982
-44.947	-7.8504
-45.238	-7.9027
-45.529	-7.9549
-45.819	-8.0072
-46.110	-8.0594
-46.401	-8.1117
-46.691	-8.1639
-46.982	-8.2162
-47.273	-8.2684
-47.563	-8.3207
-47.854	-8.3729
-48.145	-8.4252
-48.435	-8.4774
-48.726	-8.5296
-49.017	-8.5819
-49.308	-8.6341
-49.598	-8.6864
-49.889	-8.7386
-50.180	-8.7909
-50.470	-8.8431
-50.761	-8.8954
-51.052	-8.9476
-51.342	-8.9999
-51.633	-9.0521
-51.924	-9.1043
-52.214	-9.1566
-52.505	-9.2088
-52.796	-9.2611
-53.087	-9.3133
-53.377	-9.3656
-53.668	-9.4178
-53.959	-9.4701
-54.254	-9.5223
-54.583	-9.5746
-54.912	-9.6268
-55.241	-9.6791
-55.570	-9.7313
-55.899	-9.7835
-56.229	-9.8358
-56.558	-9.8880
-56.887	-9.9403
-57.216	-9.9925
-57.545	-10.026
-55.583	-10.021
-48.970	-10.010
-46.771	-10.009
-46.688	-10.009
-46.605	-10.008
-46.521	-10.007
-46.438	-9.9958
-43.094	-9.9575
-41.415	-9.9115
-40.584	-9.8655
-39.753	-9.8195
-38.921	-9.7694
-38.090	-9.7171
-37.259	-9.6647
-36.427	-9.6124
-36.018	-9.5600
-35.834	-9.5077
-35.650	-9.4553
-35.466	-9.4030
-35.281	-9.3506
-35.097	-9.2983
-34.913	-9.2459
-34.728	-9.1936
-34.544	-9.1412
-34.360	-9.0889
-34.175	-9.0365
-33.991	-8.9841
-33.807	-8.9318
-33.622	-8.8794
-33.438	-8.8271
-33.254	-8.7747
-33.070	-8.7224
-32.885	-8.6700
-32.701	-8.6177
-32.517	-8.5653
-32.332	-8.5130
-32.148	-8.4606
-31.964	-8.4083
-31.779	-8.3559
-31.595	-8.3036
-31.411	-8.2512
-31.226	-8.1988
-31.042	-8.1465
-30.858	-8.0941
-30.674	-8.0418
-30.489	-7.9894
-30.305	-7.9371
-30.121	-7.8847
-29.936	-7.8324
-29.752	-7.7800
-29.568	-7.7277
-29.284	-7.6753
-28.982	-7.6230
-28.680	-7.5706
-28.378	-7.5183
-28.076	-7.4659
-27.774	-7.4135
-27.472	-7.3612
-27.170	-7.3088
-26.868	-7.2565
-26.566	-7.2041
-26.264	-7.1518
-25.962	-7.0994
-25.660	-7.0471
-25.358	-6.9947
-25.056	-6.9424
-24.754	-6.8900
-24.452	-6.8377
-24.150	-6.7853
-23.848	-6.7330
-23.546	-6.6806
-23.244	-6.6282
-22.942	-6.5759
-22.640	-6.5235
-22.338	-6.4712
-22.036	-6.4188
-21.734	-6.3665
-21.432	-6.3141
-21.130	-6.2618
-20.828	-6.2094
-20.526	-6.1571
-20.224	-6.1047
-19.922	-6.0524
-19.620	-6.0000
-19.318	-5.9477
-19.016	-5.8953
-18.714	-5.8429
-18.412	-5.7906
-18.110	-5.7382
-17.374	-5.6859
-16.441	-5.6335
-16.225	-5.5812
-16.009	-5.5288
-15.793	-5.4765
-15.577	-5.4241
-15.361	-5.3718
-15.145	-5.3194
-14.929	-5.2671
-14.713	-5.2147
-14.497	-5.1624
-14.281	-5.1100
-14.065	-5.0576
-13.848	-5.0053
-13.632	-4.9529
-13.416	-4.9006
-13.200	-4.8482
-12.984	-4.7959
-12.768	-4.7435
-12.552	-4.6912
-12.336	-4.6388
-12.120	-4.5865
-11.904	-4.5341
-11.688	-4.4818
-11.471	-4.4294
-11.255	-4.3771
-11.039	-4.3247
-10.823	-4.2723
-10.607	-4.2200
-10.391	-4.1676
-10.175	-4.1153
-9.9589	-4.0629
-9.7428	-4.0106
-9.5267	-3.9582
-9.2760	-3.9059
-8.9790	-3.8535
-8.6820	-3.8012
-8.3850	-3.7488
-8.0880	-3.6965
-7.7910	-3.6441
-7.4939	-3.5918
-7.1969	-3.5394
-6.8999	-3.4870
-6.6029	-3.4347
-6.3059	-3.3823
-6.0089	-3.3300
-5.7118	-3.2776
-5.4148	-3.2253
-5.1178	-3.1729
-4.8208	-3.1206
-4.5238	-3.0682
-4.2268	-3.0159
-3.9297	-2.9635
-3.6327	-2.9112
-3.3357	-2.8588
-3.0387	-2.8065
-2.7417	-2.7541
-2.4559	-2.7017
-2.1911	-2.6494
-1.9262	-2.5970
-1.6614	-2.5447
-1.3965	-2.4923
-1.1317	-2.4400
-0.86687	-2.3876
-0.60203	-2.3353
-0.33719	-2.2829
-0.072355	-2.2306
0.19248	-2.1782
0.45732	-2.1259
0.72216	-2.0735
0.98700	-2.0212
1.2518	-1.9688
1.5167	-1.9164
1.7815	-1.8641
2.0463	-1.8117
2.3112	-1.7594
2.5760	-1.7070
2.8409	-1.6547
3.1581	-1.6023
3.5025	-1.5500
3.8469	-1.4976
4.1913	-1.4453
4.5357	-1.3929
4.8800	-1.3406
5.2244	-1.2882
5.5688	-1.2359
5.9132	-1.1835
6.2576	-1.1311
6.6019	-1.0788
6.9463	-1.0264
7.2907	-0.97409
7.6351	-0.92174
7.9795	-0.86938
8.3238	-0.81703
8.6682	-0.76468
9.0126	-0.71234
9.3570	-0.66007
9.7014	-0.60781
10.046	-0.55554
10.390	-0.50328
10.758	-0.45102
11.164	-0.39875
11.571	-0.34649
11.977	-0.29422
12.384	-0.24196
12.790	-0.18969
13.052	-0.13743
13.279	-0.085166
13.506	-0.032902
13.733	0.019363
13.961	0.071627
14.188	0.12389
14.415	0.17616
14.642	0.22842
14.869	0.28068
15.096	0.33295
15.324	0.38521
15.551	0.43748
15.778	0.48974
16.005	0.54200
16.232	0.59418
16.459	0.64625
16.680	0.69832
16.841	0.75039
17.001	0.80246
17.162	0.85453
17.322	0.90660
17.482	0.95867
17.643	1.0107
17.803	1.0631
17.964	1.1156
18.124	1.1681
18.285	1.2206
18.445	1.2731
18.605	1.3255
18.766	1.3780
18.926	1.4305
19.265	1.4829
19.658	1.5353
20.050	1.5877
20.442	1.6400
20.834	1.6924
21.226	1.7448
21.618	1.7971
22.010	1.8495
22.402	1.9019
22.794	1.9542
23.186	2.0066
23.578	2.0590
23.970	2.1113
24.362	2.1637
24.754	2.2161
25.146	2.2684
25.538	2.3208
25.865	2.3732
26.012	2.4255
26.158	2.4779
26.305	2.5303
26.451	2.5826
26.598	2.6350
26.744	2.6874
26.890	2.7397
27.037	2.7921
27.183	2.8445
27.330	2.8968
27.476	2.9492
27.623	3.0016
27.769	3.0539
27.916	3.1063
28.062	3.1587
28.209	3.2110
28.355	3.2634
28.501	3.3158
28.697	3.3681
29.137	3.4205
29.577	3.4729
30.017	3.5252
30.458	3.5776
30.898	3.6300
31.338	3.6823
31.779	3.7347
32.219	3.7871
32.659	3.8395
33.099	3.8918
33.535	3.9442
33.787	3.9966
34.040	4.0489
34.292	4.1013
34.544	4.1537
34.797	4.2060
35.049	4.2584
35.301	4.3108
35.553	4.3631
35.806	4.4155
36.058	4.4679
36.510	4.5203
37.023	4.5727
37.189	4.6250
37.355	4.6774
37.521	4.7298
37.687	4.7822
37.852	4.8346
38.018	4.8869
38.184	4.9393
38.350	4.9917
38.516	5.0441
38.682	5.0965
38.847	5.1488
39.013	5.2012
39.179	5.2536
39.345	5.3060
39.511	5.3584
39.839	5.4105
40.173	5.4627
40.507	5.5149
40.841	5.5670
41.175	5.6192
41.508	5.6714
41.842	5.7235
42.176	5.7757
42.510	5.8278
42.844	5.8800
43.178	5.9322
43.511	5.9843
43.845	6.0365
44.179	6.0887
44.513	6.1408
44.765	6.1930
45.002	6.2452
45.239	6.2973
45.476	6.3498
45.714	6.4024
45.951	6.4549
46.188	6.5075
46.425	6.5601
46.662	6.6127
46.899	6.6653
47.137	6.7178
47.374	6.7704
47.611	6.8230
47.848	6.8756
48.085	6.9282
48.323	6.9808
48.560	7.0333
48.797	7.0859
49.034	7.1385
49.271	7.1911
49.508	7.2436
49.746	7.2959
49.983	7.3482
50.220	7.4005
50.499	7.4527
50.968	7.5050
51.437	7.5573
51.906	7.6096
52.375	7.6618
52.843	7.7141
53.312	7.7664
53.781	7.8187
54.250	7.8710
54.626	7.9232
54.874	7.9755
55.122	8.0278
55.371	8.0788
55.619	8.1259
55.868	8.1794
56.116	8.2362
56.365	8.2918
56.613	8.3440
56.862	8.3962
57.110	8.4484
57.359	8.5006
57.607	8.5528
57.855	8.6050
58.104	8.6571
58.352	8.7093
58.601	8.7615
58.849	8.8137
59.098	8.8659
59.346	8.9181
59.595	8.9703
59.843	9.0225
60.092	9.0747
60.340	9.1268
60.588	9.1790
60.837	9.2312
61.085	9.2834
61.334	9.3356
61.582	9.3878
61.831	9.4400
62.167	9.4922
62.506	9.5444
62.844	9.5965
63.183	9.6487
63.521	9.7009
63.860	9.7531
64.198	9.8053
64.536	9.8575
64.875	9.9097
65.213	9.9619
65.552	10.009
64.642	10.006
56.610	9.9387
53.381	9.8799
52.637	9.8311
51.893	9.7823
51.148	9.7335
50.404	9.6847
49.659	9.6359
48.915	9.5839
48.171	9.5316
47.426	9.4792
46.682	9.4269
45.984	9.3745
45.668	9.3222
45.353	9.2698
45.038	9.2175
44.722	9.1651
44.407	9.1128
44.092	9.0604
43.776	9.0081
43.461	8.9557
43.146	8.9034
42.830	8.8510
42.515	8.7987
42.200	8.7463
41.884	8.6940
41.569	8.6416
41.254	8.5893
40.938	8.5369
40.623	8.4846
40.308	8.4322
39.992	8.3798
39.677	8.3275
39.362	8.2751
39.046	8.2228
38.731	8.1704
38.416	8.1181
38.100	8.0657
37.785	8.0134
37.470	7.9610
37.154	7.9087
36.839	7.8563
36.524	7.8040
36.208	7.7516
35.893	7.6993
35.577	7.6469
35.262	7.5946
34.947	7.5422
34.631	7.4899
34.316	7.4375
34.001	7.3852
33.685	7.3328
33.370	7.2805
33.055	7.2281
32.739	7.1758
32.424	7.1234
32.109	7.0710
31.793	7.0187
31.478	6.9663
31.163	6.9140
30.847	6.8616
30.532	6.8093
30.217	6.7569
29.901	6.7046
29.586	6.6522
29.271	6.5999
28.955	6.5475
28.640	6.4952
28.325	6.4428
28.009	6.3905
27.694	6.3381
27.409	6.2858
27.123	6.2334
26.838	6.1811
26.552	6.1287
26.266	6.0764
25.981	6.0240
25.695	5.9717
25.410	5.9193
25.124	5.8669
24.838	5.8146
24.553	5.7622
24.267	5.7099
23.982	5.6575
23.696	5.6052
23.410	5.5528
23.125	5.5005
22.839	5.4481
22.554	5.3958
22.268	5.3434
21.982	5.2911
21.697	5.2387
21.411	5.1864
21.126	5.1340
20.840	5.0817
20.554	5.0293
20.269	4.9770
19.983	4.9246
19.698	4.8723
19.412	4.8199
19.126	4.7676
18.841	4.7152
18.555	4.6629
18.269	4.6105
17.984	4.5581
17.698	4.5058
17.413	4.4534
17.127	4.4011
16.841	4.3487
16.556	4.2964
16.270	4.2440
15.985	4.1917
15.699	4.1393
15.413	4.0870
15.128	4.0346
14.842	3.9823
14.557	3.9299
14.271	3.8776
13.985	3.8252
13.700	3.7729
13.414	3.7205
13.129	3.6682
12.843	3.6158
12.557	3.5635
12.272	3.5111
11.986	3.4588
11.701	3.4064
11.415	3.3541
11.129	3.3017
10.844	3.2493
10.558	3.1970
10.273	3.1446
9.9869	3.0923
9.7013	3.0399
9.4157	2.9876
9.1301	2.9352
8.8445	2.8829
8.5589	2.8305
8.2733	2.7782
7.9877	2.7258
7.7021	2.6735
7.4165	2.6211
7.1309	2.5688
6.8453	2.5164
6.5597	2.4641
6.2740	2.4117
5.9884	2.3594
5.7028	2.3070
5.4172	2.2546
5.1316	2.2023
4.8460	2.1499
4.5604	2.0975
4.2748	2.0451
3.9892	1.9928
3.7036	1.9404
3.4180	1.8880
3.1324	1.8357
2.8468	1.7833
2.5612	1.7309
2.2756	1.6786
1.9900	1.6262
1.7044	1.5738
1.4188	1.5215
1.1331	1.4691
0.84754	1.4167
0.56194	1.3644
0.27633	1.3120
-0.0092742	1.2596
-0.29488	1.2073
-0.58049	1.1549
-0.86609	1.1025
-1.1517	1.0502
-1.4373	0.99780
-1.7229	0.94543
-2.0085	0.89306
-2.2941	0.84069
-2.5797	0.78833
-2.8653	0.73596
-3.1509	0.68359
-3.4365	0.63122
-3.7221	0.57886
-4.0078	0.52649
-4.2934	0.47412
-4.6113	0.42175
-4.9367	0.36938
-5.2621	0.31702
-5.5875	0.26465
-5.9129	0.21228
-6.2383	0.15991
-6.5637	0.10755
-6.8891	0.055179
-7.2127	0.0028114
-7.5058	-0.049556
-7.7990	-0.10192
-8.0922	-0.15429
-8.3854	-0.20666
-8.6785	-0.25903
-8.9717	-0.31139
-9.2649	-0.36376
-9.5580	-0.41613
-9.8512	-0.46847
-10.144	-0.52082
-10.438	-0.57317
-10.731	-0.62551
-11.024	-0.67786
-11.317	-0.73020
-11.610	-0.78255
-11.903	-0.83490
-12.197	-0.88724
-12.490	-0.93959
-12.783	-0.99193
-13.076	-1.0443
-13.369	-1.0966
-13.662	-1.1490
-13.956	-1.2013
-14.249	-1.2537
-14.542	-1.3060
-14.835	-1.3584
-15.128	-1.4107
-15.421	-1.4630
-15.715	-1.5154
-16.008	-1.5677
-16.301	-1.6201
-16.594	-1.6724
-16.887	-1.7248
-17.180	-1.7771
-17.474	-1.8295
-17.767	-1.8818
-18.060	-1.9342
-18.353	-1.9865
-18.646	-2.0389
-18.939	-2.0913
-19.233	-2.1436
-19.526	-2.1960
-19.819	-2.2483
-20.112	-2.3007
-20.405	-2.3531
-20.698	-2.4054
-20.992	-2.4578
-21.277	-2.5101
-21.546	-2.5625
-21.815	-2.6148
-22.084	-2.6672
-22.353	-2.7195
-22.623	-2.7718
-22.892	-2.8241
-23.161	-2.8764
-23.430	-2.9287
-23.699	-2.9810
-23.968	-3.0332
-24.237	-3.0855
-24.506	-3.1378
-24.775	-3.1901
-25.044	-3.2424
-25.313	-3.2947
-25.582	-3.3469
-25.851	-3.3992
-26.120	-3.4515
-26.389	-3.5038
-26.658	-3.5561
-26.927	-3.6084
-27.196	-3.6606
-27.465	-3.7129
-27.734	-3.7653
-28.003	-3.8176
-28.273	-3.8700
-28.542	-3.9223
-28.811	-3.9746
-29.080	-4.0270
-29.349	-4.0793
-29.618	-4.1317
-29.887	-4.1840
-30.156	-4.2363
-30.425	-4.2887
-30.694	-4.3410
-30.963	-4.3934
-31.232	-4.4457
-31.522	-4.4980
-31.814	-4.5504
-32.107	-4.6027
-32.399	-4.6551
-32.691	-4.7074
-32.984	-4.7597
-33.276	-4.8121
-33.568	-4.8644
-33.860	-4.9168
-34.153	-4.9691
-34.445	-5.0214
-34.737	-5.0738
-35.030	-5.1261
-35.322	-5.1785
-35.614	-5.2308
-35.906	-5.2831
-36.199	-5.3355
-36.491	-5.3878
-36.783	-5.4402
-37.076	-5.4925
-37.368	-5.5448
-37.660	-5.5972
-37.952	-5.6495
-38.245	-5.7019
-38.537	-5.7542
-38.829	-5.8065
-39.122	-5.8589
-39.414	-5.9112
-39.706	-5.9636
-39.998	-6.0159
-40.291	-6.0682
-40.583	-6.1206
-40.875	-6.1729
-41.168	-6.2253
-41.460	-6.2776
-41.752	-6.3299
-42.044	-6.3823
-42.337	-6.4346
-42.629	-6.4870
-42.921	-6.5393
-43.213	-6.5916
-43.506	-6.6440
-43.798	-6.6963
-44.090	-6.7487
-44.383	-6.8010
-44.675	-6.8533
-44.967	-6.9057
-45.259	-6.9580
-45.552	-7.0104
-45.844	-7.0627
-46.136	-7.1150
-46.429	-7.1674
-46.721	-7.2197
-47.013	-7.2721
-47.305	-7.3244
-47.598	-7.3767
-47.890	-7.4291
-48.182	-7.4818
-48.475	-7.5347
-48.767	-7.5875
-49.059	-7.6400
-49.351	-7.6924
-49.644	-7.7448
-49.936	-7.7973
-50.228	-7.8497
-50.521	-7.9021
-50.813	-7.9545
-51.105	-8.0070
-51.397	-8.0594
-51.690	-8.1118
-51.982	-8.1643
-52.274	-8.2167
-52.567	-8.2691
-52.859	-8.3215
-53.151	-8.3740
-53.443	-8.4264
-53.736	-8.4788
-54.028	-8.5312
-54.320	-8.5835
-54.612	-8.6359
-54.905	-8.6882
-55.197	-8.7406
-55.485	-8.7929
-55.745	-8.8452
-56.005	-8.8976
-56.266	-8.9499
-56.526	-9.0023
-56.786	-9.0546
-57.047	-9.1070
-57.307	-9.1593
-57.567	-9.2116
-57.828	-9.2639
-58.088	-9.3161
-58.348	-9.3683
-58.609	-9.4205
-58.869	-9.4726
-59.129	-9.5248
-59.390	-9.5770
-59.658	-9.6292
-59.955	-9.6813
-60.251	-9.7335
-60.548	-9.7857
-60.844	-9.8379
-61.140	-9.8901
-61.437	-9.9422
-61.733	-9.9928
-61.667	-10.005
-56.069	-9.9541
-43.511	-9.8976
-38.914	-9.8495
-38.124	-9.8064
-37.729	-9.7849