File: text_data/C4.txt
Load (N)	Extension (mm)

9.7223	0.046387
9.7240	0.046387
9.7257	0.046387
9.7273	0.046387
9.7290	0.046387
9.7307	0.038473
3.5929	-0.074053
7.9535	-0.066999
3.7416	-0.11970
2.6005	-0.18169
0.33004	-0.31314
-1.7851	-0.46004
-2.6576	-0.61145
-3.5301	-0.76362
-4.4026	-0.91578
-5.2751	-1.0691
-6.1476	-1.2200
-7.0201	-1.3710
-7.8926	-1.5232
-8.7651	-1.6735
-9.6377	-1.8271
-10.510	-1.9781
-11.383	-2.1290
-12.255	-2.2800
-13.128	-2.4291
-14.000	-2.5800
-14.873	-2.7314
-15.745	-2.8828
-16.618	-3.0339
-17.490	-3.1850
-18.363	-3.3361
-19.235	-3.4872
-20.108	-3.6383
-20.980	-3.7895
-21.853	-3.9406
-22.725	-4.0915
-23.598	-4.2419
-24.470	-4.3923
-25.343	-4.5427
-26.215	-4.6931
-27.088	-4.8434
-27.960	-4.9938
-28.833	-5.1442
-29.705	-5.2946
-30.578	-5.4450
-31.450	-5.5954
-32.323	-5.7458
-33.195	-5.8962
-34.068	-6.0466
-34.940	-6.1973
-35.813	-6.3481
-36.685	-6.4990
-37.558	-6.6498
-38.430	-6.8007
-39.303	-6.9516
-40.175	-7.1024
-41.048	-7.2533
-41.920	-7.4041
-42.793	-7.5550
-43.665	-7.7059
-44.538	-7.8567
-45.410	-8.0076
-46.283	-8.1584
-47.155	-8.3093
-48.028	-8.4602
-48.900	-8.6110
-49.773	-8.7619
-50.645	-8.9122
-51.557	-9.0612
-52.485	-9.2112
-53.414	-9.3617
-54.342	-9.5123
-55.270	-9.6629
-56.198	-9.8135
-57.127	-9.9640
-58.046	-10.115
-58.941	-10.265
-59.835	-10.416
-60.729	-10.566
-61.624	-10.717
-62.518	-10.868
-63.342	-11.018
-64.076	-11.169
-64.809	-11.320
-65.543	-11.470
-66.276	-11.621
-67.144	-11.772
-68.060	-11.922
-68.975	-12.073
-69.891	-12.224
-70.806	-12.374
-71.722	-12.525
-72.638	-12.676
-73.498	-12.827
-74.346	-12.977
-75.195	-13.128
-76.044	-13.279
-76.892	-13.429
-77.741	-13.580
-78.589	-13.731
-79.438	-13.881
-80.286	-14.032
-81.135	-14.183
-81.983	-14.333
-82.832	-14.484
-83.680	-14.635
-84.529	-14.785
-85.378	-14.936
-86.226	-15.087
-87.075	-15.237
-88.035	-15.388
-89.159	-15.539
-90.283	-15.690
-91.386	-15.841
-92.267	-15.993
-93.148	-16.144
-94.029	-16.295
-94.910	-16.446
-95.791	-16.596
-96.672	-16.747
-97.553	-16.897
-98.434	-17.048
-99.314	-17.199
-100.20	-17.349
-101.08	-17.500
-101.96	-17.650
-102.84	-17.801
-103.72	-17.952
-104.60	-18.102
-105.48	-18.253
-106.36	-18.403
-107.24	-18.554
-108.12	-18.705
-109.00	-18.855
-109.89	-19.006
-110.77	-19.156
-111.41	-19.307
-112.05	-19.458
-113.06	-19.609
-114.19	-19.759
-115.33	-19.910
-116.46	-20.061
-117.59	-20.211
-118.72	-20.362
-119.85	-20.513
-120.99	-20.663
-122.12	-20.814
-124.14	-20.965
-127.76	-21.115
-131.38	-21.266
-135.00	-21.417
-138.83	-21.566
-142.89	-21.715
-146.27	-21.864
-150.19	-22.014
-165.56	-22.163
-182.17	-22.313
-198.15	-22.462
-223.88	-22.612
-272.72	-22.761
-327.40	-22.911
-379.14	-23.060
-432.52	-23.210
-499.90	-23.347
-513.89	-23.358
-511.65	-23.357
-509.41	-23.357
-418.97	-23.228
-300.26	-23.078
-253.04	-22.929
-205.81	-22.780
-158.59	-22.631
-132.16	-22.481
-128.99	-22.332
-125.82	-22.183
-122.65	-22.034
-119.48	-21.884
-116.31	-21.735
-113.14	-21.586
-109.97	-21.437
-106.80	-21.288
-103.63	-21.138
-100.46	-20.988
-86.865	-20.837
-85.928	-20.686
-84.992	-20.536
-84.055	-20.385
-83.118	-20.234
-82.181	-20.084
-81.245	-19.933
-80.308	-19.783
-79.400	-19.632
-78.707	-19.481
-78.014	-19.331
-77.321	-19.180
-76.628	-19.029
-75.935	-18.879
-75.242	-18.728
-74.549	-18.578
-73.856	-18.427
-73.163	-18.276
-72.470	-18.126
-71.777	-17.975
-71.084	-17.824
-70.032	-17.674
-68.808	-17.523
-67.698	-17.373
-67.079	-17.222
-66.460	-17.071
-65.841	-16.921
-65.222	-16.770
-64.603	-16.619
-63.985	-16.469
-63.366	-16.318
-62.747	-16.168
-62.128	-16.017
-61.509	-15.866
-60.057	-15.716
-58.568	-15.565
-57.574	-15.414
-57.138	-15.264
-56.702	-15.113
-56.266	-14.963
-55.830	-14.812
-55.394	-14.661
-54.958	-14.511
-54.523	-14.360
-53.627	-14.209
-52.561	-14.059
-51.494	-13.908
-50.427	-13.758
-49.360	-13.607
-48.293	-13.456
-47.285	-13.306
-46.856	-13.155
-46.428	-13.004
-45.999	-12.854
-45.571	-12.703
-45.142	-12.553
-44.714	-12.402
-44.285	-12.251
-43.634	-12.101
-42.570	-11.950
-41.506	-11.799
-40.442	-11.648
-39.378	-11.498
-38.315	-11.347
-37.251	-11.196
-36.510	-11.046
-36.184	-10.895
-35.858	-10.744
-35.532	-10.594
-35.206	-10.443
-34.880	-10.292
-34.200	-10.142
-32.879	-9.9909
-31.558	-9.8402
-30.420	-9.6895
-29.680	-9.5351
-28.941	-9.3849
-28.201	-9.2347
-27.462	-9.0845
-27.023	-8.9343
-26.772	-8.7841
-26.521	-8.6339
-26.270	-8.4837
-25.597	-8.3336
-24.442	-8.1833
-23.288	-8.0326
-22.133	-7.8819
-20.979	-7.7312
-19.824	-7.5805
-18.669	-7.4298
-18.068	-7.2791
-17.580	-7.1284
-17.092	-6.9777
-16.603	-6.8270
-16.547	-6.6763
-16.509	-6.5256
-16.250	-6.3749
-15.082	-6.2242
-13.913	-6.0735
-12.745	-5.9228
-11.577	-5.7721
-10.408	-5.6214
-9.7443	-5.4707
-9.3339	-5.3199
-8.9234	-5.1691
-8.5130	-5.0184
-8.1026	-4.8676
-7.7498	-4.7169
-7.4791	-4.5655
-7.2085	-4.4146
-6.1584	-4.2639
-5.0443	-4.1133
-3.9301	-3.9626
-3.1252	-3.8120
-2.5213	-3.6613
-1.9175	-3.5107
-1.3136	-3.3600
-0.70977	-3.2093
-0.10592	-3.0587
0.50871	-2.9080
1.1562	-2.7574
1.8037	-2.6067
2.4512	-2.4560
3.1582	-2.3054
4.4037	-2.1547
5.6492	-2.0041
6.8947	-1.8534
7.7383	-1.7028
8.1883	-1.5521
8.6384	-1.4014
9.0884	-1.2508
9.5384	-1.1001
9.9885	-0.94946
10.439	-0.79881
10.905	-0.64815
11.753	-0.49749
12.602	-0.34683
13.451	-0.19617
14.299	-0.045513
15.148	0.10515
15.997	0.25580
16.695	0.40278
17.323	0.55558
17.951	0.70628
18.580	0.85697
19.208	1.0077
19.836	1.1584
20.464	1.3091
21.092	1.4598
21.720	1.6105
22.349	1.7612
22.977	1.9118
23.880	2.0625
24.951	2.2132
26.023	2.3639
27.094	2.5146
28.165	2.6653
29.236	2.8160
29.731	2.9666
30.096	3.1171
30.460	3.2677
30.825	3.4182
31.189	3.5687
31.901	3.7193
32.883	3.8698
33.865	4.0204
34.847	4.1709
35.830	4.3214
36.812	4.4720
37.794	4.6225
38.727	4.7730
39.196	4.9236
39.666	5.0741
40.135	5.2247
40.605	5.3752
41.074	5.5258
41.833	5.6765
42.813	5.8271
43.794	5.9778
44.774	6.1284
45.718	6.2791
46.445	6.4298
47.172	6.5804
47.899	6.7311
48.626	6.8817
49.352	7.0324
50.142	7.1831
50.940	7.3337
51.738	7.4844
52.536	7.6350
53.441	7.7857
54.469	7.9363
55.498	8.0870
56.275	8.2236
56.946	8.3959
57.616	8.5454
58.287	8.6895
58.958	8.8401
59.628	8.9907
60.299	9.1413
60.970	9.2919
61.945	9.4424
63.061	9.5930
64.178	9.7436
65.294	9.8942
66.411	10.045
67.195	10.195
67.841	10.346
68.486	10.497
69.132	10.647
69.778	10.798
70.423	10.948
71.069	11.099
71.812	11.249
72.860	11.400
73.908	11.551
74.956	11.701
76.004	11.852
77.052	12.002
77.693	12.153
78.168	12.303
78.643	12.454
79.118	12.605
79.593	12.755
80.068	12.906
81.372	13.056
83.165	13.207
84.142	13.358
85.093	13.508
86.044	13.659
86.996	13.809
87.900	13.960
88.794	14.110
89.459	14.261
89.666	14.412
89.874	14.562
90.081	14.713
90.756	14.863
91.972	15.014
93.188	15.164
94.404	15.315
95.620	15.466
96.836	15.618
98.052	15.771
99.268	15.921
99.729	16.072
99.899	16.223
100.07	16.374
100.24	16.524
100.41	16.675
101.55	16.826
103.03	16.977
104.50	17.127
105.98	17.278
107.45	17.429
108.93	17.579
109.46	17.730
110.42	17.881
111.39	18.031
112.32	18.181
112.68	18.330
113.04	18.480
113.40	18.631
114.18	18.782
115.42	18.932
116.65	19.083
118.18	19.234
119.83	19.384
121.48	19.535
122.40	19.686
123.27	19.836
124.15	19.987
125.02	20.138
125.63	20.289
126.18	20.439
126.72	20.590
127.26	20.741
128.27	20.892
130.04	21.042
131.82	21.193
133.59	21.344
135.37	21.495
136.67	21.645
137.27	21.796
137.86	21.947
138.45	22.097
139.04	22.248
139.63	22.399
140.23	22.550
140.82	22.700
141.41	22.851
142.93	23.002
144.65	23.152
146.36	23.303
148.08	23.454
149.67	23.605
150.34	23.755
151.01	23.906
151.69	24.057
152.36	24.207
153.03	24.358
153.70	24.509
154.38	24.659
155.95	24.810
158.00	24.961
160.04	25.112
162.09	25.262
163.57	25.413
164.90	25.564
166.24	25.715
167.15	25.865
167.58	26.016
168.02	26.167
168.45	26.318
168.89	26.468
170.54	26.619
172.55	26.768
174.57	26.919
176.58	27.069
178.61	27.220
180.75	27.371
182.89	27.521
185.03	27.672
186.04	27.822
186.67	27.973
187.30	28.124
187.93	28.274
188.56	28.425
189.19	28.576
189.81	28.726
191.40	28.877
193.17	29.027
194.93	29.178
196.70	29.329
198.47	29.479
200.76	29.630
204.20	29.781
206.97	29.931
208.62	30.082
210.27	30.233
211.92	30.383
213.57	30.534
215.22	30.685
216.87	30.836
218.52	30.986
220.06	31.137
221.39	31.288
222.72	31.438
224.04	31.589
225.37	31.740
226.70	31.890
228.02	32.041
229.35	32.191
231.92	32.342
235.28	32.493
238.63	32.643
242.05	32.794
245.62	32.945
249.03	33.095
250.61	33.246
252.20	33.396
253.78	33.547
255.37	33.698
256.95	33.848
258.54	33.999
261.66	34.150
265.35	34.300
269.05	34.451
273.71	34.601
279.78	34.752
283.67	34.903
286.82	35.053
289.98	35.204
293.14	35.355
296.29	35.505
299.45	35.655
302.61	35.805
306.90	35.955
312.07	36.106
317.24	36.256
323.43	36.406
330.55	36.556
336.92	36.706
341.61	36.857
346.31	37.007
351.01	37.157
355.70	37.308
360.40	37.458
366.77	37.609
374.83	37.759
382.88	37.910
393.86	38.060
405.88	38.211
417.91	38.361
429.94	38.512
441.96	38.662
453.99	38.813
468.86	38.963
485.24	39.113
481.25	39.122
416.73	38.970
379.18	38.822
353.18	38.674
332.67	38.526
312.17	38.376
299.30	38.225
290.80	38.075
282.30	37.924
273.80	37.774
265.30	37.623
257.31	37.472
253.65	37.322
249.99	37.171
246.33	37.020
242.67	36.870
239.01	36.719
235.34	36.569
231.68	36.418
228.02	36.267
224.36	36.117
221.28	35.966
218.97	35.815
216.67	35.665
214.36	35.514
212.05	35.364
209.75	35.213
207.44	35.062
205.13	34.912
202.83	34.761
200.86	34.610
199.14	34.460
197.42	34.309
195.69	34.159
193.97	34.008
192.25	33.857
190.52	33.707
188.80	33.556
187.08	33.405
185.41	33.255
184.01	33.104
182.61	32.954
181.21	32.803
179.81	32.652
178.41	32.502
177.00	32.351
175.60	32.200
174.20	32.050
172.80	31.899
171.40	31.748
170.00	31.598
168.71	31.447
167.51	31.296
166.31	31.146
165.11	30.995
163.92	30.844
162.72	30.694
161.52	30.543
160.32	30.392
159.12	30.242
157.92	30.091
156.72	29.940
155.52	29.790
154.32	29.639
153.12	29.488
151.92	29.338
150.73	29.187
149.53	29.036
148.43	28.886
147.33	28.735
146.23	28.584
145.13	28.434
144.03	28.283
142.94	28.132
141.84	27.982
140.74	27.831
139.64	27.680
138.54	27.530
137.45	27.379
136.35	27.228
135.25	27.078
134.15	26.927
133.05	26.776
131.95	26.626
130.86	26.475
129.79	26.325
128.80	26.174
127.81	26.024
126.82	25.873
125.82	25.723
124.83	25.572
123.84	25.421
122.85	25.271
121.86	25.120
120.87	24.970
119.88	24.818
118.89	24.666
117.89	24.515
116.90	24.365
115.91	24.214
114.92	24.064
113.93	23.913
112.94	23.763
111.95	23.613
110.96	23.462
109.97	23.311
108.97	23.160
107.98	23.009
107.06	22.858
106.15	22.707
105.24	22.556
104.33	22.405
103.42	22.255
102.50	22.104
101.59	21.953
100.68	21.802
99.770	21.651
98.858	21.500
97.946	21.350
97.035	21.199
96.123	21.048
95.212	20.898
94.300	20.747
93.388	20.596
92.477	20.446
91.565	20.295
90.654	20.144
89.742	19.994
88.830	19.843
87.919	19.692
87.007	19.542
86.096	19.391
85.190	19.240
84.299	19.090
83.409	18.939
82.519	18.788
81.628	18.638
80.738	18.487
79.847	18.336
78.957	18.186
78.066	18.035
77.176	17.885
76.285	17.734
75.395	17.583
74.504	17.433
73.614	17.282
72.724	17.131
71.833	16.981
70.943	16.830
70.052	16.679
69.162	16.529
68.271	16.378
67.381	16.228
66.502	16.078
65.627	15.927
64.751	15.777
63.875	15.626
63.000	15.476
62.124	15.326
61.249	15.175
60.373	15.025
59.497	14.875
58.622	14.724
57.746	14.573
56.870	14.423
55.995	14.272
55.119	14.121
54.243	13.970
53.368	13.819
52.492	13.668
51.616	13.517
50.741	13.366
49.951	13.216
49.492	13.065
48.673	12.914
47.854	12.763
47.036	12.612
46.217	12.461
45.398	12.311
44.579	12.160
43.760	12.009
42.941	11.859
42.122	11.708
41.303	11.557
40.484	11.406
39.665	11.256
38.847	11.105
38.028	10.954
37.209	10.804
36.390	10.653
35.571	10.502
34.752	10.352
33.933	10.201
33.114	10.050
32.295	9.8994
31.476	9.7487
30.658	9.5980
29.839	9.4473
29.020	9.2968
28.201	9.1463
27.382	8.9959
26.563	8.8454
25.744	8.6949
24.925	8.5444
24.106	8.3939
23.287	8.2434
22.469	8.0929
21.650	7.9424
20.831	7.7919
20.012	7.6414
19.193	7.4909
18.374	7.3404
17.555	7.1900
16.736	7.0395
15.917	6.8890
15.098	6.7385
14.280	6.5880
13.461	6.4375
12.642	6.2842
11.823	6.1327
11.004	5.9820
10.185	5.8314
9.3956	5.6807
8.6189	5.5301
7.8421	5.3794
7.0653	5.2288
6.2886	5.0781
5.5118	4.9274
4.7351	4.7768
3.9583	4.6261
3.1815	4.4755
2.4048	4.3248
1.6280	4.1742
0.85125	4.0235
0.074491	3.8729
-0.70227	3.7222
-1.4790	3.5716
-2.2558	3.4209
-3.0326	3.2703
-3.8093	3.1196
-4.5861	2.9689
-5.3628	2.8183
-6.1396	2.6676
-6.9164	2.5170
-7.6931	2.3663
-8.4699	2.2157
-9.2466	2.0650
-10.023	1.9144
-10.800	1.7637
-11.577	1.6131
-12.354	1.4624
-13.130	1.3117
-13.907	1.1611
-14.684	1.0104
-15.461	0.85978
-16.286	0.70913
-17.155	0.55848
-18.024	0.40782
-18.893	0.25717
-19.756	0.10651
-20.566	-0.044141
-21.376	-0.19480
-22.186	-0.34545
-22.996	-0.49610
-23.806	-0.64676
-24.616	-0.79741
-25.426	-0.94807
-26.236	-1.0987
-27.046	-1.2494
-27.856	-1.4000
-28.666	-1.5507
-29.476	-1.7014
-30.286	-1.8521
-31.096	-2.0029
-31.906	-2.1536
-32.556	-2.3044
-33.104	-2.4547
-33.940	-2.6045
-34.789	-2.7548
-35.638	-2.9055
-36.487	-3.0562
-37.336	-3.2068
-38.185	-3.3575
-39.034	-3.5084
-39.883	-3.6594
-40.732	-3.8104
-41.581	-3.9615
-42.430	-4.1123
-43.274	-4.2632
-44.041	-4.4141
-44.807	-4.5650
-45.574	-4.7158
-46.341	-4.8667
-47.107	-5.0175
-47.874	-5.1682
-48.641	-5.3188
-49.407	-5.4695
-50.174	-5.6201
-50.941	-5.7708
-51.708	-5.9214
-52.474	-6.0721
-53.241	-6.2227
-54.059	-6.3734
-54.890	-6.5240
-55.722	-6.6747
-56.553	-6.8253
-57.384	-6.9760
-58.210	-7.1266
-59.022	-7.2773
-59.834	-7.4279
-60.647	-7.5786
-61.459	-7.7292
-62.271	-7.8798
-63.083	-8.0305
-63.895	-8.1811
-64.707	-8.3318
-65.519	-8.4824
-66.332	-8.6331
-67.144	-8.7837
-67.956	-8.9344
-68.766	-9.0850
-69.577	-9.2357
-70.388	-9.3863
-71.199	-9.5369
-72.009	-9.6876
-72.820	-9.8382
-73.631	-9.9884
-74.336	-10.139
-74.853	-10.289
-75.369	-10.439
-76.256	-10.589
-77.198	-10.740
-78.141	-10.890
-79.083	-11.041
-80.025	-11.192
-80.968	-11.342
-81.910	-11.493
-82.852	-11.643
-83.794	-11.794
-84.737	-11.945
-85.679	-12.095
-86.621	-12.246
-87.544	-12.397
-88.356	-12.547
-89.169	-12.698
-89.981	-12.849
-90.794	-13.000
-91.606	-13.151
-92.418	-13.302
-93.231	-13.453
-94.043	-13.604
-94.856	-13.755
-95.668	-13.905
-96.612	-14.056
-97.628	-14.207
-98.644	-14.357
-99.660	-14.508
-100.68	-14.659
-101.69	-14.809
-102.71	-14.960
-103.79	-15.111
-104.94	-15.261
-106.10	-15.412
-107.25	-15.563
-108.41	-15.713
-109.56	-15.864
-110.72	-16.015
-111.87	-16.165
-113.02	-16.316
-114.18	-16.467
-115.33	-16.617
-116.49	-16.768
-117.64	-16.919
-118.80	-17.069
-119.93	-17.220
-120.76	-17.371
-121.58	-17.521
-122.41	-17.672
-123.24	-17.822
-124.13	-17.973
-125.48	-18.124
-126.84	-18.274
-128.20	-18.425
-129.55	-18.575
-130.99	-18.726
-133.03	-18.877
-135.06	-19.027
-137.10	-19.178
-139.16	-19.328
-141.44	-19.479
-143.81	-19.629
-146.19	-19.780
-148.56	-19.931
-150.94	-20.081
-153.31	-20.232
-155.69	-20.382
-158.06	-20.532
-160.43	-20.682
-165.46	-20.833
-170.94	-20.983
-176.42	-21.134
-181.90	-21.285
-187.38	-21.435
-192.90	-21.585
-199.27	-21.735
-210.47	-21.885
-221.97	-22.035
-233.47	-22.184
-248.33	-22.335
-265.22	-22.485
-282.11	-22.636
-304.36	-22.786
-351.17	-22.936
-397.98	-23.085
-449.09	-23.233
-512.15	-23.336
-383.42	-23.175
-327.10	-23.110