File: text_data/C5 - 10.txt
Load (N)	Extension (mm)

5.2134	0.069275
5.2178	0.069275
5.2223	0.069275
5.2267	0.069275
5.2311	0.069275
5.2356	0.069275
5.2400	0.069275
5.2445	0.069275
5.2489	0.069275
5.2533	0.069275
5.2578	0.069275
5.2622	0.069275
5.2667	0.069275
5.2711	0.069275
5.2755	0.069275
5.2800	0.069275
5.2844	0.062857
3.6946	0.034351
-0.55380	-0.000046563
0.32358	0.0084578
4.8811	0.022076
2.5740	0.015240
0.60907	0.014242
0.66224	0.013810
0.71541	0.013378
0.76857	0.012946
0.82174	0.012571
0.87491	0.0034522
-0.68808	-0.032042
-3.4235	-0.075746
-3.8282	-0.12025
-4.2077	-0.16809
-4.5871	-0.21813
-4.9665	-0.26959
-5.3459	-0.32106
-5.7253	-0.37252
-6.1047	-0.42399
-6.4841	-0.47667
-6.8635	-0.52959
-7.2429	-0.58252
-7.6223	-0.63545
-8.0017	-0.68837
-8.3811	-0.74130
-8.7605	-0.79422
-9.1399	-0.84715
-9.5193	-0.90005
-9.8987	-0.95274
-10.278	-1.0054
-10.658	-1.0581
-11.037	-1.1108
-11.416	-1.1627
-11.796	-1.2150
-12.175	-1.2692
-12.555	-1.3231
-12.934	-1.3757
-13.313	-1.4283
-13.693	-1.4809
-14.072	-1.5335
-14.452	-1.5861
-14.831	-1.6386
-15.210	-1.6912
-15.590	-1.7436
-15.969	-1.7960
-16.349	-1.8483
-16.728	-1.9007
-17.107	-1.9530
-17.487	-2.0059
-17.866	-2.0594
-18.246	-2.1120
-18.625	-2.1644
-19.004	-2.2168
-19.384	-2.2692
-19.763	-2.3216
-20.143	-2.3740
-20.522	-2.4264
-20.901	-2.4788
-21.281	-2.5312
-21.660	-2.5836
-22.040	-2.6360
-22.419	-2.6892
-22.798	-2.7428
-23.178	-2.7956
-23.557	-2.8465
-23.937	-2.8975
-24.316	-2.9498
-24.696	-3.0023
-25.075	-3.0548
-25.454	-3.1073
-25.807	-3.1598
-26.159	-3.2123
-26.511	-3.2648
-26.862	-3.3172
-27.214	-3.3697
-27.565	-3.4222
-27.917	-3.4747
-28.269	-3.5272
-28.620	-3.5797
-28.972	-3.6322
-29.323	-3.6846
-29.675	-3.7371
-30.027	-3.7896
-30.378	-3.8421
-30.730	-3.8946
-31.081	-3.9471
-31.433	-3.9996
-31.785	-4.0520
-32.136	-4.1044
-32.488	-4.1568
-32.839	-4.2091
-33.191	-4.2615
-33.543	-4.3139
-33.894	-4.3663
-34.246	-4.4187
-34.597	-4.4710
-34.949	-4.5234
-35.300	-4.5758
-35.652	-4.6282
-36.004	-4.6806
-36.355	-4.7330
-36.707	-4.7853
-37.058	-4.8377
-37.410	-4.8901
-37.762	-4.9425
-38.115	-4.9949
-38.475	-5.0472
-38.835	-5.0996
-39.195	-5.1520
-39.555	-5.2044
-39.915	-5.2568
-40.276	-5.3092
-40.636	-5.3615
-40.996	-5.4139
-41.356	-5.4663
-41.716	-5.5187
-42.076	-5.5711
-42.437	-5.6234
-42.797	-5.6758
-43.157	-5.7282
-43.517	-5.7806
-43.877	-5.8330
-44.237	-5.8854
-44.598	-5.9377
-44.958	-5.9901
-45.318	-6.0425
-45.678	-6.0949
-46.038	-6.1473
-46.398	-6.1996
-46.759	-6.2520
-47.119	-6.3044
-47.479	-6.3568
-47.781	-6.4092
-48.078	-6.4616
-48.375	-6.5139
-48.672	-6.5663
-48.969	-6.6187
-49.266	-6.6711
-49.563	-6.7235
-49.860	-6.7759
-50.157	-6.8282
-50.454	-6.8806
-50.751	-6.9330
-51.048	-6.9854
-51.345	-7.0378
-51.642	-7.0901
-51.939	-7.1425
-52.236	-7.1949
-52.533	-7.2473
-52.830	-7.2997
-53.127	-7.3521
-53.424	-7.4044
-53.749	-7.4568
-54.157	-7.5092
-54.565	-7.5616
-54.973	-7.6140
-55.381	-7.6663
-55.790	-7.7187
-56.198	-7.7712
-56.606	-7.8236
-57.014	-7.8760
-57.422	-7.9284
-57.831	-7.9809
-58.136	-8.0333
-58.431	-8.0857
-58.727	-8.1381
-59.022	-8.1906
-59.317	-8.2430
-59.612	-8.2954
-59.908	-8.3478
-60.203	-8.4002
-60.498	-8.4527
-60.794	-8.5051
-61.089	-8.5575
-61.384	-8.6099
-61.680	-8.6624
-61.975	-8.7148
-62.270	-8.7672
-62.565	-8.8196
-62.861	-8.8721
-63.156	-8.9245
-63.451	-8.9769
-63.736	-9.0293
-64.019	-9.0817
-64.302	-9.1341
-64.585	-9.1864
-64.868	-9.2387
-65.150	-9.2911
-65.433	-9.3434
-65.716	-9.3957
-65.999	-9.4480
-66.282	-9.5003
-66.565	-9.5526
-66.847	-9.6049
-67.130	-9.6573
-67.413	-9.7096
-67.696	-9.7619
-67.979	-9.8142
-68.262	-9.8665
-68.544	-9.9188
-68.827	-9.9711
-69.110	-10.020
-68.458	-10.023
-63.613	-10.011
-62.187	-10.008
-62.097	-10.006
-62.007	-10.005
-61.917	-10.005
-61.827	-10.004
-61.737	-9.9827
-57.973	-9.9364
-54.200	-9.8901
-48.551	-9.8438
-41.855	-9.7975
-41.550	-9.7499
-41.246	-9.6975
-40.942	-9.6451
-40.637	-9.5927
-40.333	-9.5404
-40.028	-9.4880
-39.724	-9.4356
-39.419	-9.3833
-39.115	-9.3309
-38.810	-9.2785
-38.506	-9.2262
-38.202	-9.1738
-37.897	-9.1214
-37.593	-9.0691
-37.288	-9.0167
-36.984	-8.9643
-36.679	-8.9120
-36.375	-8.8596
-36.070	-8.8072
-35.766	-8.7549
-35.462	-8.7025
-35.157	-8.6501
-34.853	-8.5978
-34.548	-8.5454
-34.244	-8.4930
-33.939	-8.4407
-33.635	-8.3883
-33.330	-8.3359
-33.026	-8.2836
-32.722	-8.2312
-32.417	-8.1788
-32.113	-8.1264
-31.808	-8.0741
-31.504	-8.0217
-31.199	-7.9693
-30.895	-7.9170
-30.590	-7.8646
-30.286	-7.8122
-29.982	-7.7599
-29.677	-7.7075
-29.373	-7.6551
-29.068	-7.6028
-28.764	-7.5504
-28.459	-7.4980
-28.155	-7.4457
-27.850	-7.3933
-27.546	-7.3409
-27.242	-7.2886
-26.937	-7.2362
-26.633	-7.1838
-26.328	-7.1315
-26.024	-7.0791
-25.719	-7.0267
-25.415	-6.9744
-25.252	-6.9220
-25.097	-6.8696
-24.942	-6.8173
-24.787	-6.7649
-24.631	-6.7125
-24.476	-6.6601
-24.321	-6.6078
-24.166	-6.5554
-24.010	-6.5030
-23.855	-6.4507
-23.700	-6.3983
-23.545	-6.3459
-23.389	-6.2936
-23.234	-6.2412
-22.982	-6.1888
-22.675	-6.1365
-22.367	-6.0841
-22.060	-6.0317
-21.753	-5.9794
-21.446	-5.9270
-21.139	-5.8746
-20.832	-5.8223
-20.525	-5.7699
-20.218	-5.7175
-19.910	-5.6652
-19.603	-5.6128
-19.296	-5.5604
-18.989	-5.5081
-18.682	-5.4557
-18.375	-5.4033
-18.068	-5.3510
-17.761	-5.2986
-17.453	-5.2462
-17.146	-5.1938
-16.839	-5.1415
-16.532	-5.0891
-16.225	-5.0367
-15.918	-4.9844
-15.664	-4.9320
-15.425	-4.8796
-15.186	-4.8273
-14.947	-4.7749
-14.708	-4.7225
-14.469	-4.6702
-14.230	-4.6178
-13.991	-4.5654
-13.752	-4.5131
-13.513	-4.4607
-13.275	-4.4083
-13.036	-4.3560
-12.797	-4.3036
-12.558	-4.2512
-12.319	-4.1989
-12.080	-4.1465
-11.841	-4.0941
-11.602	-4.0418
-11.363	-3.9894
-11.124	-3.9370
-10.885	-3.8847
-10.604	-3.8323
-10.232	-3.7799
-9.8602	-3.7276
-9.4884	-3.6752
-9.1166	-3.6228
-8.7447	-3.5704
-8.3729	-3.5181
-8.0011	-3.4657
-7.6292	-3.4133
-7.2574	-3.3610
-6.8775	-3.3086
-6.4952	-3.2562
-6.1130	-3.2039
-5.7307	-3.1515
-5.3485	-3.0991
-4.9662	-3.0468
-4.5840	-2.9944
-4.2017	-2.9420
-3.8194	-2.8897
-3.4372	-2.8373
-3.1944	-2.7849
-3.1313	-2.7326
-3.0682	-2.6802
-3.0051	-2.6278
-2.9420	-2.5755
-2.8789	-2.5231
-2.8158	-2.4707
-2.7526	-2.4172
-2.6895	-2.3605
-2.6264	-2.3068
-2.5633	-2.2545
-2.5002	-2.2022
-2.4371	-2.1498
-2.3740	-2.0975
-2.3109	-2.0452
-2.2478	-1.9928
-2.1846	-1.9405
-2.1215	-1.8882
-2.0584	-1.8358
-1.9953	-1.7835
-1.9322	-1.7312
-1.8691	-1.6788
-1.7121	-1.6265
-1.1066	-1.5741
-0.50104	-1.5218
0.10450	-1.4695
0.71003	-1.4171
1.3156	-1.3648
1.9211	-1.3125
2.5266	-1.2601
3.0413	-1.2078
3.2365	-1.1555
3.4317	-1.1031
3.6269	-1.0508
3.8221	-0.99846
4.0174	-0.94613
4.2126	-0.89379
4.4078	-0.84146
4.6030	-0.78912
4.7982	-0.73679
4.9935	-0.68445
5.1887	-0.63212
5.3839	-0.57978
5.5502	-0.52745
5.6876	-0.47511
5.8250	-0.42278
5.9624	-0.37044
6.0998	-0.31811
6.2372	-0.26577
6.3746	-0.21344
6.5120	-0.16110
6.6494	-0.10877
6.7868	-0.056432
6.9241	-0.0040967
7.0615	0.048238
7.1989	0.10057
7.3363	0.15291
7.8290	0.20524
8.3282	0.25758
8.8275	0.30991
9.3268	0.36225
9.8260	0.41458
10.325	0.46692
10.825	0.51925
11.324	0.57159
11.823	0.62392
12.164	0.67626
12.303	0.72859
12.442	0.78093
12.581	0.83340
12.719	0.88624
12.858	0.93908
12.997	0.99157
13.136	1.0440
13.275	1.0964
13.414	1.1489
13.553	1.2013
13.692	1.2537
13.830	1.3062
13.969	1.3586
14.108	1.4111
14.242	1.4635
14.364	1.5159
14.487	1.5684
14.609	1.6208
14.732	1.6732
14.855	1.7257
14.977	1.7781
15.100	1.8306
15.222	1.8830
15.345	1.9354
15.824	1.9879
16.397	2.0403
16.970	2.0927
17.543	2.1452
18.117	2.1976
18.690	2.2500
19.263	2.3025
19.836	2.3549
20.409	2.4074
20.983	2.4598
21.556	2.5122
22.129	2.5647
22.301	2.6171
22.410	2.6695
22.519	2.7220
22.628	2.7744
22.737	2.8268
22.846	2.8793
22.955	2.9317
23.064	2.9842
23.173	3.0366
23.282	3.0890
23.391	3.1415
23.500	3.1939
23.609	3.2463
23.718	3.2988
23.827	3.3512
23.936	3.4036
24.045	3.4561
24.154	3.5085
24.263	3.5610
24.639	3.6134
25.091	3.6658
25.544	3.7183
25.996	3.7707
26.448	3.8231
26.900	3.8755
27.352	3.9279
27.804	3.9803
28.256	4.0327
28.708	4.0850
29.160	4.1374
29.613	4.1898
30.065	4.2422
30.460	4.2946
30.696	4.3469
30.932	4.3993
31.168	4.4517
31.403	4.5041
31.639	4.5565
31.875	4.6088
32.111	4.6612
32.347	4.7136
32.582	4.7660
32.818	4.8184
33.054	4.8707
33.225	4.9231
33.266	4.9755
33.307	5.0279
33.349	5.0803
33.390	5.1326
33.431	5.1850
33.473	5.2374
33.514	5.2898
33.555	5.3422
33.837	5.3945
34.288	5.4469
34.739	5.4993
35.189	5.5517
35.640	5.6041
36.091	5.6564
36.541	5.7088
36.992	5.7612
37.443	5.8136
37.893	5.8660
38.344	5.9183
38.795	5.9707
39.245	6.0231
39.427	6.0755
39.568	6.1279
39.709	6.1802
39.849	6.2326
39.990	6.2850
40.130	6.3374
40.271	6.3898
40.411	6.4421
40.552	6.4945
40.692	6.5469
40.833	6.5993
40.973	6.6517
41.114	6.7040
41.255	6.7564
41.395	6.8088
41.536	6.8612
41.676	6.9135
41.817	6.9659
41.957	7.0183
42.231	7.0706
42.542	7.1230
42.854	7.1753
43.165	7.2277
43.476	7.2800
43.787	7.3324
44.098	7.3848
44.409	7.4371
44.720	7.4895
45.031	7.5418
45.342	7.5942
45.653	7.6465
45.965	7.6989
46.276	7.7512
46.587	7.8036
46.898	7.8560
47.209	7.9083
47.520	7.9607
47.822	8.0130
48.114	8.0654
48.407	8.1177
48.699	8.1701
48.992	8.2225
49.284	8.2748
49.577	8.3270
49.869	8.3776
50.161	8.4283
50.454	8.4803
50.746	8.5327
51.039	8.5852
51.331	8.6376
51.624	8.6901
51.916	8.7425
52.163	8.7950
52.339	8.8474
52.515	8.8999
52.690	8.9523
52.866	9.0047
53.041	9.0572
53.217	9.1096
53.393	9.1621
53.568	9.2145
53.744	9.2670
53.920	9.3194
54.095	9.3718
54.462	9.4243
55.053	9.4767
55.645	9.5292
56.237	9.5816
56.828	9.6341
57.420	9.6865
58.012	9.7389
58.604	9.7914
59.195	9.8438
59.368	9.8963
59.373	9.9487
59.377	9.9975
59.381	10.012
53.671	9.9601
49.568	9.8956
48.597	9.8478
47.627	9.7999
46.656	9.7520
45.685	9.7042
44.714	9.6546
43.744	9.6022
43.292	9.5498
42.983	9.4975
42.673	9.4451
42.364	9.3927
42.055	9.3403
41.745	9.2879
41.436	9.2355
41.127	9.1831
40.817	9.1307
40.508	9.0784
40.198	9.0260
39.889	8.9736
39.580	8.9212
39.270	8.8688
38.961	8.8164
38.651	8.7640
38.342	8.7116
38.033	8.6592
37.723	8.6069
37.414	8.5545
37.105	8.5021
36.795	8.4497
36.486	8.3973
36.176	8.3449
35.867	8.2925
35.558	8.2401
35.248	8.1878
34.939	8.1354
34.629	8.0830
34.320	8.0306
34.011	7.9782
33.701	7.9258
33.392	7.8734
33.083	7.8210
32.773	7.7687
32.464	7.7163
32.154	7.6639
31.845	7.6115
31.536	7.5591
31.226	7.5067
30.917	7.4543
30.607	7.4019
30.298	7.3496
29.989	7.2972
29.679	7.2448
29.370	7.1924
29.061	7.1400
28.751	7.0876
28.442	7.0352
28.132	6.9828
27.823	6.9304
27.514	6.8781
27.204	6.8257
26.895	6.7733
26.586	6.7209
26.276	6.6685
25.967	6.6161
25.657	6.5637
25.348	6.5113
25.039	6.4590
24.729	6.4066
24.420	6.3542
24.110	6.3018
23.801	6.2494
23.492	6.1970
23.182	6.1446
22.873	6.0922
22.564	6.0399
22.254	5.9875
21.945	5.9351
21.635	5.8827
21.326	5.8303
21.017	5.7779
20.707	5.7255
20.398	5.6731
20.088	5.6207
19.779	5.5684
19.470	5.5160
19.160	5.4636
18.851	5.4112
18.542	5.3588
18.232	5.3064
17.923	5.2540
17.613	5.2016
17.304	5.1493
16.995	5.0969
16.685	5.0445
16.376	4.9921
16.066	4.9397
15.757	4.8873
15.448	4.8349
15.138	4.7825
14.829	4.7302
14.520	4.6778
14.210	4.6254
13.901	4.5730
13.591	4.5206
13.282	4.4682
12.973	4.4158
12.663	4.3634
12.354	4.3110
12.044	4.2587
11.735	4.2063
11.426	4.1539
11.116	4.1015
10.807	4.0491
10.498	3.9967
10.188	3.9443
9.8788	3.8919
9.5694	3.8396
9.2600	3.7872
8.9506	3.7348
8.6413	3.6824
8.3319	3.6300
8.0225	3.5776
7.7131	3.5252
7.4193	3.4728
7.1323	3.4205
6.8453	3.3681
6.5583	3.3157
6.2713	3.2633
5.9843	3.2109
5.6974	3.1585
5.4104	3.1061
5.1234	3.0537
4.8364	3.0013
4.5494	2.9490
4.2624	2.8966
3.9754	2.8442
3.6885	2.7918
3.4015	2.7394
3.1145	2.6870
2.8275	2.6346
2.5405	2.5822
2.2535	2.5299
1.9665	2.4775
1.6796	2.4251
1.3926	2.3727
1.1056	2.3203
0.81861	2.2679
0.53162	2.2155
0.24464	2.1631
-0.042349	2.1108
-0.32933	2.0584
-0.61632	2.0060
-0.90330	1.9536
-1.1903	1.9012
-1.4773	1.8488
-1.7643	1.7964
-2.0512	1.7440
-2.3382	1.6917
-2.6252	1.6393
-2.9122	1.5869
-3.2269	1.5345
-3.6000	1.4821
-3.9731	1.4297
-4.3462	1.3773
-4.6958	1.3249
-5.0011	1.2725
-5.3064	1.2202
-5.6117	1.1678
-5.9169	1.1154
-6.2222	1.0630
-6.5275	1.0106
-6.8327	0.95822
-7.1380	0.90583
-7.4433	0.85344
-7.7486	0.80106
-8.0538	0.74867
-8.3591	0.69628
-8.6644	0.63923
-8.9697	0.58561
-9.2749	0.53329
-9.5802	0.48097
-9.8855	0.42865
-10.191	0.37632
-10.496	0.32400
-10.801	0.27168
-11.107	0.21936
-11.412	0.16703
-11.717	0.11471
-12.022	0.062387
-12.328	0.010064
-12.633	-0.042258
-12.938	-0.094581
-13.243	-0.14690
-13.549	-0.19923
-13.854	-0.25155
-14.159	-0.30387
-14.465	-0.35619
-14.770	-0.40852
-15.075	-0.46084
-15.380	-0.51316
-15.686	-0.56549
-15.991	-0.61781
-16.296	-0.67013
-16.601	-0.72245
-16.907	-0.77478
-17.212	-0.82710
-17.513	-0.87942
-17.799	-0.93175
-18.084	-0.98407
-18.370	-1.0364
-18.655	-1.0887
-18.940	-1.1410
-19.226	-1.1934
-19.511	-1.2457
-19.797	-1.2980
-20.082	-1.3503
-20.368	-1.4026
-20.653	-1.4550
-20.939	-1.5073
-21.224	-1.5596
-21.509	-1.6120
-21.795	-1.6643
-22.080	-1.7167
-22.366	-1.7690
-22.651	-1.8213
-22.937	-1.8737
-23.222	-1.9260
-23.507	-1.9784
-23.807	-2.0307
-24.111	-2.0831
-24.416	-2.1354
-24.720	-2.1877
-25.025	-2.2401
-25.329	-2.2924
-25.634	-2.3448
-25.938	-2.3971
-26.243	-2.4494
-26.547	-2.5018
-26.852	-2.5541
-27.156	-2.6065
-27.461	-2.6588
-27.765	-2.7112
-28.070	-2.7635
-28.374	-2.8158
-28.679	-2.8682
-28.983	-2.9206
-29.288	-2.9732
-29.592	-3.0257
-29.896	-3.0783
-30.201	-3.1309
-30.505	-3.1835
-30.810	-3.2361
-31.114	-3.2887
-31.419	-3.3412
-31.723	-3.3938
-32.028	-3.4464
-32.332	-3.4990
-32.637	-3.5514
-32.941	-3.6037
-33.246	-3.6561
-33.550	-3.7085
-33.848	-3.7609
-34.132	-3.8133
-34.416	-3.8657
-34.701	-3.9181
-34.985	-3.9705
-35.269	-4.0229
-35.553	-4.0753
-35.837	-4.1276
-36.122	-4.1800
-36.406	-4.2324
-36.690	-4.2848
-36.974	-4.3372
-37.259	-4.3896
-37.543	-4.4420
-37.827	-4.4944
-38.111	-4.5468
-38.395	-4.5992
-38.680	-4.6516
-38.964	-4.7039
-39.248	-4.7563
-39.532	-4.8087
-39.817	-4.8611
-40.101	-4.9135
-40.385	-4.9659
-40.669	-5.0183
-40.953	-5.0707
-41.238	-5.1231
-41.522	-5.1755
-41.806	-5.2278
-42.090	-5.2802
-42.375	-5.3326
-42.659	-5.3850
-42.943	-5.4374
-43.227	-5.4898
-43.511	-5.5422
-43.796	-5.5946
-44.080	-5.6470
-44.364	-5.6994
-44.648	-5.7517
-44.933	-5.8041
-45.217	-5.8565
-45.501	-5.9089
-45.785	-5.9613
-46.069	-6.0137
-46.354	-6.0661
-46.699	-6.1185
-47.059	-6.1709
-47.419	-6.2233
-47.779	-6.2757
-48.138	-6.3280
-48.498	-6.3804
-48.858	-6.4328
-49.218	-6.4852
-49.578	-6.5376
-49.938	-6.5900
-50.298	-6.6424
-50.657	-6.6948
-51.017	-6.7472
-51.377	-6.7996
-51.737	-6.8519
-52.097	-6.9043
-52.457	-6.9567
-52.816	-7.0091
-53.137	-7.0615
-53.422	-7.1139
-53.707	-7.1663
-53.993	-7.2187
-54.278	-7.2711
-54.563	-7.3235
-54.848	-7.3758
-55.133	-7.4282
-55.418	-7.4806
-55.703	-7.5330
-55.988	-7.5854
-56.273	-7.6378
-56.558	-7.6902
-56.843	-7.7426
-57.128	-7.7950
-57.413	-7.8474
-57.697	-7.8997
-57.982	-7.9521
-58.266	-8.0045
-58.550	-8.0568
-58.835	-8.1092
-59.119	-8.1616
-59.403	-8.2139
-59.687	-8.2663
-59.972	-8.3186
-60.256	-8.3710
-60.540	-8.4234
-60.825	-8.4757
-61.109	-8.5281
-61.393	-8.5805
-61.678	-8.6328
-61.962	-8.6852
-62.246	-8.7376
-62.530	-8.7899
-62.815	-8.8423
-63.099	-8.8946
-63.383	-8.9470
-63.668	-8.9994
-63.952	-9.0517
-64.236	-9.1041
-64.521	-9.1565
-64.805	-9.2088
-65.089	-9.2612
-65.373	-9.3135
-65.658	-9.3659
-65.942	-9.4183
-66.226	-9.4706
-66.511	-9.5230
-66.795	-9.5754
-67.079	-9.6277
-67.363	-9.6801
-67.648	-9.7325
-67.932	-9.7848
-68.216	-9.8372
-68.583	-9.8895
-69.048	-9.9419
-69.514	-9.9926
-69.444	-10.004
-63.495	-9.9502
-55.915	-9.8909
-48.663	-9.8471
-43.506	-9.8044
-41.993	-9.7830