File: text_data/C5.txt
Load (N)	Extension (mm)

5.6216	0.061035
5.6419	0.061035
5.6622	0.061035
5.6824	0.061035
5.7027	0.061035
5.7230	0.058475
-1.1856	-0.022219
2.1717	-0.013602
2.5566	-0.024152
1.0740	-0.067067
-3.9788	-0.20209
-6.4644	-0.34962
-7.6051	-0.50134
-8.6152	-0.65307
-9.6254	-0.80500
-10.636	-0.95794
-11.646	-1.1110
-12.656	-1.2641
-13.666	-1.4172
-14.676	-1.5703
-15.686	-1.7227
-16.696	-1.8750
-17.707	-2.0274
-18.717	-2.1790
-19.727	-2.3292
-20.737	-2.4812
-21.747	-2.6339
-22.757	-2.7866
-23.767	-2.9386
-24.777	-3.0905
-25.788	-3.2424
-26.680	-3.3943
-27.568	-3.5462
-28.455	-3.6981
-29.342	-3.8499
-30.229	-4.0015
-31.117	-4.1530
-32.004	-4.3046
-32.891	-4.4562
-33.796	-4.6077
-34.790	-4.7593
-35.784	-4.9108
-36.778	-5.0624
-37.773	-5.2140
-38.767	-5.3655
-39.761	-5.5171
-40.755	-5.6686
-41.749	-5.8188
-42.744	-5.9704
-43.738	-6.1222
-44.732	-6.2739
-45.726	-6.4257
-46.721	-6.5775
-47.715	-6.7293
-48.741	-6.8811
-49.788	-7.0329
-50.834	-7.1847
-51.881	-7.3364
-52.928	-7.4882
-53.975	-7.6400
-55.022	-7.7918
-56.069	-7.9436
-57.116	-8.0954
-58.224	-8.2471
-59.386	-8.3989
-60.547	-8.5507
-61.709	-8.7025
-62.814	-8.8543
-63.894	-9.0060
-64.974	-9.1566
-66.054	-9.3073
-67.135	-9.4579
-68.215	-9.6087
-69.295	-9.7603
-70.375	-9.9118
-71.410	-10.063
-72.232	-10.215
-73.054	-10.367
-73.876	-10.518
-74.698	-10.670
-75.520	-10.821
-76.342	-10.973
-77.166	-11.124
-78.060	-11.276
-78.955	-11.428
-79.569	-11.580
-80.068	-11.731
-81.048	-11.883
-82.029	-12.035
-83.009	-12.186
-83.990	-12.338
-84.971	-12.490
-85.884	-12.641
-86.702	-12.793
-87.520	-12.945
-88.338	-13.097
-89.156	-13.248
-89.985	-13.400
-90.816	-13.552
-91.648	-13.703
-92.480	-13.855
-93.311	-14.007
-94.143	-14.158
-94.975	-14.310
-95.806	-14.462
-96.638	-14.613
-97.470	-14.765
-98.302	-14.917
-99.133	-15.068
-99.965	-15.220
-100.80	-15.371
-101.63	-15.523
-102.54	-15.674
-103.61	-15.826
-104.68	-15.978
-105.75	-16.129
-106.82	-16.281
-108.18	-16.432
-109.68	-16.584
-111.19	-16.735
-112.69	-16.887
-114.04	-17.039
-115.28	-17.190
-116.51	-17.342
-117.75	-17.493
-118.99	-17.645
-120.08	-17.796
-121.15	-17.948
-122.22	-18.100
-123.29	-18.251
-124.55	-18.403
-125.87	-18.554
-127.19	-18.706
-128.51	-18.857
-129.83	-19.009
-131.14	-19.160
-132.55	-19.312
-133.96	-19.463
-135.36	-19.615
-137.05	-19.767
-138.85	-19.918
-140.65	-20.070
-141.59	-20.221
-143.92	-20.373
-145.81	-20.524
-147.69	-20.676
-149.57	-20.827
-151.46	-20.979
-153.34	-21.130
-155.22	-21.282
-157.11	-21.434
-158.99	-21.585
-160.87	-21.737
-163.18	-21.888
-167.95	-22.040
-178.42	-22.191
-199.35	-22.343
-231.68	-22.493
-278.85	-22.642
-332.79	-22.792
-397.90	-22.942
-482.62	-23.091
-495.77	-23.087
-498.87	-23.123
-487.35	-23.059
-361.64	-22.919
-251.09	-22.779
-190.31	-22.631
-131.58	-22.480
-128.32	-22.328
-125.07	-22.176
-121.82	-22.025
-118.57	-21.873
-115.31	-21.722
-112.06	-21.570
-108.81	-21.419
-105.55	-21.267
-102.30	-21.115
-99.049	-20.964
-95.797	-20.812
-94.322	-20.661
-93.374	-20.509
-92.427	-20.358
-91.480	-20.206
-90.532	-20.054
-89.585	-19.903
-88.637	-19.751
-87.690	-19.600
-86.743	-19.448
-85.795	-19.297
-84.848	-19.145
-83.900	-18.993
-82.927	-18.842
-81.916	-18.690
-80.906	-18.539
-79.895	-18.387
-78.884	-18.236
-77.873	-18.084
-76.863	-17.932
-75.852	-17.781
-74.841	-17.629
-73.831	-17.478
-72.820	-17.326
-72.425	-17.175
-72.050	-17.023
-71.676	-16.871
-71.301	-16.720
-70.515	-16.568
-68.757	-16.417
-66.999	-16.265
-65.241	-16.114
-63.483	-15.962
-63.011	-15.810
-62.679	-15.659
-62.348	-15.507
-62.016	-15.356
-61.685	-15.204
-61.353	-15.053
-60.998	-14.901
-60.624	-14.749
-60.251	-14.598
-59.375	-14.446
-58.104	-14.295
-56.833	-14.143
-55.563	-13.991
-54.292	-13.840
-53.021	-13.688
-52.005	-13.536
-51.791	-13.385
-51.577	-13.233
-51.363	-13.081
-51.148	-12.929
-50.934	-12.778
-50.677	-12.629
-50.406	-12.478
-50.134	-12.326
-48.418	-12.174
-46.701	-12.023
-44.984	-11.871
-43.267	-11.719
-42.771	-11.567
-42.444	-11.416
-42.117	-11.264
-41.789	-11.112
-41.462	-10.960
-41.305	-10.809
-41.237	-10.657
-41.168	-10.505
-40.361	-10.353
-39.132	-10.202
-37.903	-10.051
-36.673	-9.8992
-35.444	-9.7479
-34.214	-9.5965
-33.548	-9.4450
-33.271	-9.2935
-32.994	-9.1419
-32.717	-8.9904
-32.517	-8.8389
-32.344	-8.6873
-32.170	-8.5358
-31.146	-8.3842
-29.797	-8.2327
-28.216	-8.0812
-26.579	-7.9296
-25.394	-7.7781
-25.141	-7.6266
-24.888	-7.4750
-24.635	-7.3234
-24.382	-7.1718
-24.129	-7.0202
-23.876	-6.8686
-23.623	-6.7170
-23.258	-6.5653
-21.686	-6.4137
-20.114	-6.2621
-18.542	-6.1105
-16.970	-5.9589
-15.399	-5.8073
-14.841	-5.6557
-14.441	-5.5040
-14.042	-5.3524
-13.642	-5.2008
-13.242	-5.0492
-12.927	-4.8976
-12.757	-4.7460
-12.586	-4.5885
-12.415	-4.4365
-11.042	-4.2859
-9.3663	-4.1354
-7.7599	-3.9849
-7.4335	-3.8343
-7.1071	-3.6830
-6.7807	-3.5313
-6.4544	-3.3796
-6.1280	-3.2279
-5.8013	-3.0762
-5.4315	-2.9245
-5.0618	-2.7728
-4.6921	-2.6211
-3.3646	-2.4694
-1.6467	-2.3177
0.071127	-2.1660
1.2300	-2.0143
1.5964	-1.8626
1.9627	-1.7109
2.3290	-1.5592
2.6953	-1.4075
3.0616	-1.2558
3.3437	-1.1041
3.5792	-0.95243
3.8148	-0.80073
4.8189	-0.64908
6.2902	-0.49749
7.7615	-0.34591
9.2328	-0.19432
10.414	-0.042741
10.599	0.10884
10.785	0.26043
10.971	0.41193
11.157	0.56395
11.343	0.71457
11.529	0.86518
12.446	1.0165
13.788	1.1683
15.130	1.3200
16.185	1.4718
17.204	1.6235
18.222	1.7753
18.518	1.9271
18.700	2.0788
18.881	2.2306
19.063	2.3823
19.244	2.5341
19.556	2.6859
21.131	2.8376
22.705	2.9894
24.280	3.1411
25.855	3.2929
26.259	3.4446
26.630	3.5964
27.000	3.7481
27.371	3.8997
27.742	4.0513
28.113	4.2029
28.483	4.3545
29.399	4.5061
30.752	4.6577
32.105	4.8093
33.458	4.9609
34.393	5.1125
34.781	5.2641
35.169	5.4157
35.557	5.5673
35.946	5.7189
36.334	5.8705
37.491	6.0221
38.699	6.1737
39.906	6.3253
41.114	6.4769
41.961	6.6285
42.504	6.7801
43.046	6.9317
43.589	7.0833
44.131	7.2349
44.674	7.3865
45.217	7.5381
46.088	7.6897
47.454	7.8413
48.820	7.9929
50.186	8.1445
50.764	8.2961
51.177	8.4462
51.590	8.5910
52.004	8.7475
52.417	8.9020
52.830	9.0538
53.414	9.2055
54.553	9.3573
55.693	9.5091
56.832	9.6609
57.972	9.8126
59.111	9.9644
60.251	10.116
60.877	10.268
61.457	10.420
62.036	10.571
62.615	10.723
63.194	10.875
63.773	11.027
64.752	11.179
65.790	11.330
66.828	11.482
67.866	11.633
68.904	11.785
69.942	11.936
70.980	12.088
71.701	12.239
72.304	12.391
72.907	12.542
73.511	12.693
74.114	12.845
74.999	12.996
76.157	13.148
77.316	13.299
78.475	13.450
79.634	13.602
80.435	13.753
80.957	13.905
81.480	14.056
82.002	14.208
82.525	14.359
83.328	14.511
84.671	14.662
86.015	14.814
87.389	14.966
89.421	15.117
90.051	15.269
90.602	15.421
91.153	15.572
91.703	15.724
92.254	15.875
92.804	16.027
93.355	16.179
93.906	16.330
94.957	16.482
96.218	16.634
97.479	16.785
98.740	16.937
99.960	17.088
101.15	17.240
102.27	17.392
102.78	17.543
103.30	17.695
103.82	17.847
104.34	17.998
104.85	18.150
105.44	18.302
106.94	18.453
108.44	18.604
109.94	18.755
111.44	18.906
112.95	19.058
114.45	19.209
115.73	19.361
116.14	19.513
116.55	19.665
116.96	19.816
117.37	19.968
117.78	20.120
118.66	20.272
120.17	20.423
121.67	20.575
123.18	20.727
124.68	20.879
126.18	21.030
127.69	21.182
128.82	21.334
129.00	21.485
129.18	21.637
129.37	21.789
129.55	21.940
130.20	22.092
131.73	22.243
133.26	22.395
134.80	22.547
136.33	22.698
137.87	22.850
139.40	23.002
140.94	23.153
142.47	23.305
143.41	23.456
143.86	23.608
144.31	23.760
144.76	23.911
145.21	24.063
146.33	24.215
147.54	24.366
148.85	24.518
150.75	24.670
152.65	24.821
154.54	24.973
155.83	25.124
156.64	25.276
157.45	25.428
158.26	25.579
159.10	25.731
160.04	25.882
160.98	26.034
161.92	26.185
163.30	26.336
165.62	26.487
167.94	26.639
170.24	26.790
171.27	26.941
172.29	27.093
173.32	27.244
174.34	27.396
175.14	27.547
175.52	27.699
175.89	27.851
176.27	28.003
177.44	28.154
179.39	28.306
181.35	28.458
183.30	28.610
185.81	28.761
188.36	28.913
190.23	29.065
191.30	29.217
192.36	29.368
193.42	29.520
194.48	29.672
195.33	29.824
195.99	29.975
196.65	30.127
197.30	30.279
199.10	30.430
200.97	30.582
203.57	30.734
206.99	30.885
208.31	31.037
209.17	31.188
210.03	31.340
210.88	31.491
211.74	31.643
212.60	31.794
213.46	31.946
214.52	32.097
216.93	32.249
219.34	32.400
221.75	32.552
224.17	32.703
226.58	32.855
228.99	33.007
231.40	33.158
233.12	33.310
234.56	33.461
236.00	33.613
237.43	33.764
238.87	33.916
242.14	34.068
245.98	34.219
249.81	34.371
253.65	34.522
257.49	34.674
261.48	34.825
265.92	34.977
270.35	35.128
274.78	35.280
279.21	35.432
283.64	35.583
287.83	35.735
291.19	35.886
294.55	36.038
297.36	36.190
299.57	36.341
301.78	36.493
304.62	36.645
310.29	36.796
315.95	36.947
321.94	37.099
329.69	37.250
337.44	37.401
342.70	37.553
344.41	37.704
346.11	37.856
351.25	38.007
356.62	38.158
361.98	38.310
367.34	38.461
372.71	38.613
384.86	38.764
397.06	38.915
409.26	39.066
421.99	39.217
434.94	39.368
447.90	39.520
460.85	39.671
473.80	39.822
486.76	39.973
463.91	39.931
401.82	39.784
371.46	39.639
341.09	39.488
320.01	39.336
307.12	39.184
294.22	39.033
281.33	38.881
268.43	38.730
262.50	38.578
257.69	38.427
252.88	38.275
248.07	38.124
243.26	37.972
238.45	37.820
233.64	37.669
229.09	37.517
225.82	37.366
222.54	37.214
219.27	37.063
216.00	36.911
213.63	36.760
211.52	36.608
209.42	36.457
207.31	36.305
205.20	36.153
203.10	36.002
200.99	35.850
198.89	35.699
197.05	35.547
195.44	35.396
193.84	35.244
192.24	35.093
190.64	34.941
189.03	34.789
187.43	34.638
185.83	34.486
184.22	34.335
182.62	34.183
181.13	34.032
179.83	33.880
178.53	33.728
177.23	33.577
175.94	33.425
174.64	33.273
173.34	33.121
172.04	32.969
170.74	32.818
169.45	32.666
168.15	32.514
166.85	32.362
165.64	32.211
164.49	32.059
163.35	31.907
162.21	31.755
161.07	31.604
159.92	31.452
158.78	31.300
157.64	31.148
156.50	30.997
155.35	30.845
154.21	30.693
153.07	30.541
151.93	30.390
150.78	30.238
149.64	30.086
148.50	29.935
147.36	29.783
146.32	29.631
145.28	29.480
144.23	29.328
143.19	29.177
142.15	29.025
141.10	28.874
140.06	28.722
139.02	28.571
137.98	28.419
136.93	28.267
135.89	28.116
134.85	27.964
133.80	27.813
132.76	27.661
131.72	27.510
130.68	27.358
129.63	27.206
128.59	27.055
127.55	26.903
126.50	26.752
125.46	26.600
124.42	26.449
123.37	26.297
122.33	26.145
121.29	25.994
120.25	25.842
119.20	25.691
118.16	25.539
117.12	25.388
116.13	25.236
115.16	25.085
114.20	24.933
113.24	24.781
112.27	24.630
111.31	24.478
110.35	24.327
109.38	24.175
108.42	24.024
107.46	23.873
106.49	23.721
105.53	23.570
104.57	23.419
103.60	23.267
102.64	23.115
101.68	22.963
100.71	22.812
99.748	22.660
98.785	22.508
97.821	22.356
96.858	22.202
95.907	22.049
94.997	21.896
94.086	21.744
93.176	21.592
92.265	21.441
91.355	21.289
90.444	21.138
89.534	20.986
88.623	20.834
87.713	20.683
86.802	20.531
85.892	20.380
84.981	20.228
84.071	20.077
83.160	19.925
82.250	19.774
81.339	19.622
80.429	19.470
79.518	19.319
78.608	19.167
77.697	19.016
76.787	18.864
75.876	18.713
74.966	18.561
74.055	18.410
73.145	18.258
72.234	18.106
71.324	17.955
70.413	17.803
69.638	17.652
68.871	17.500
68.104	17.349
67.329	17.197
66.478	17.046
65.628	16.894
64.777	16.743
63.926	16.592
63.076	16.441
62.225	16.290
61.374	16.138
60.524	15.987
59.673	15.835
58.823	15.683
57.972	15.532
57.121	15.382
56.271	15.231
55.420	15.079
54.569	14.927
53.719	14.775
52.868	14.623
52.018	14.471
51.167	14.319
50.316	14.167
49.466	14.015
48.615	13.863
47.764	13.711
46.914	13.559
46.063	13.407
45.212	13.256
44.362	13.105
43.511	12.954
42.661	12.803
41.810	12.652
40.959	12.500
40.109	12.348
39.258	12.197
38.407	12.045
37.557	11.894
36.713	11.742
35.873	11.590
35.033	11.439
34.193	11.287
33.353	11.136
32.513	10.984
31.673	10.833
30.833	10.681
29.993	10.529
29.153	10.378
28.313	10.226
27.473	10.074
26.634	9.9223
25.810	9.7705
24.992	9.6187
24.174	9.4670
23.356	9.3152
22.538	9.1634
21.720	9.0116
20.902	8.8599
20.084	8.7081
19.266	8.5563
18.448	8.4045
17.630	8.2527
16.812	8.1010
15.994	7.9492
15.176	7.7976
14.358	7.6461
13.540	7.4946
12.722	7.3431
11.904	7.1916
11.086	7.0400
10.268	6.8885
9.4499	6.7370
8.6319	6.5855
7.8139	6.4340
6.9959	6.2825
6.1779	6.1309
5.3599	5.9794
4.5419	5.8279
3.7239	5.6764
2.9059	5.5249
2.0879	5.3734
1.2699	5.2218
0.45186	5.0702
-0.36614	4.9186
-1.1952	4.7669
-2.0628	4.6152
-2.9304	4.4636
-3.7979	4.3119
-4.6655	4.1603
-5.5331	4.0086
-6.4006	3.8569
-7.2682	3.7053
-8.1358	3.5536
-9.0033	3.4020
-9.8709	3.2503
-10.738	3.0986
-11.606	2.9470
-12.474	2.7955
-13.317	2.6439
-14.071	2.4923
-14.825	2.3407
-15.579	2.1891
-16.333	2.0376
-17.087	1.8860
-17.841	1.7344
-18.595	1.5828
-19.349	1.4308
-20.103	1.2789
-20.857	1.1269
-21.611	0.97500
-22.365	0.82306
-23.123	0.67111
-23.883	0.51924
-24.644	0.36769
-25.404	0.21613
-26.164	0.064581
-26.925	-0.086972
-27.685	-0.23852
-28.446	-0.39008
-29.206	-0.54163
-29.966	-0.69318
-30.727	-0.84474
-31.487	-0.99629
-32.265	-1.1478
-33.063	-1.2994
-33.860	-1.4509
-34.657	-1.6025
-35.454	-1.7541
-36.251	-1.9056
-37.049	-2.0572
-37.846	-2.2087
-38.643	-2.3603
-39.440	-2.5118
-40.237	-2.6634
-41.035	-2.8149
-41.832	-2.9665
-42.629	-3.1181
-43.426	-3.2697
-44.223	-3.4214
-45.021	-3.5730
-45.795	-3.7246
-46.569	-3.8763
-47.343	-4.0279
-48.118	-4.1795
-48.892	-4.3311
-49.666	-4.4828
-50.441	-4.6344
-51.215	-4.7860
-51.989	-4.9377
-52.763	-5.0893
-53.538	-5.2409
-54.312	-5.3926
-55.086	-5.5442
-55.860	-5.6958
-56.577	-5.8475
-57.270	-5.9991
-57.963	-6.1507
-58.656	-6.3023
-59.349	-6.4540
-60.043	-6.6057
-60.736	-6.7574
-61.429	-6.9091
-62.122	-7.0609
-62.815	-7.2126
-63.508	-7.3643
-64.202	-7.5160
-65.156	-7.6677
-66.139	-7.8195
-67.121	-7.9712
-68.104	-8.1229
-69.087	-8.2746
-70.070	-8.4263
-71.053	-8.5780
-72.036	-8.7298
-73.019	-8.8816
-74.002	-9.0333
-74.922	-9.1851
-75.769	-9.3369
-76.616	-9.4887
-77.462	-9.6402
-78.310	-9.7918
-79.170	-9.9433
-80.029	-10.095
-80.888	-10.246
-81.748	-10.398
-82.607	-10.549
-83.467	-10.701
-84.326	-10.852
-85.263	-11.004
-86.332	-11.155
-87.401	-11.307
-88.470	-11.458
-89.539	-11.610
-90.608	-11.761
-91.456	-11.913
-92.160	-12.065
-92.864	-12.216
-93.567	-12.368
-94.271	-12.519
-95.524	-12.671
-97.062	-12.823
-98.601	-12.974
-99.984	-13.126
-101.09	-13.277
-102.20	-13.429
-103.31	-13.581
-104.41	-13.732
-105.52	-13.884
-106.63	-14.035
-107.73	-14.187
-108.84	-14.339
-109.95	-14.490
-111.05	-14.642
-112.16	-14.793
-113.27	-14.945
-114.38	-15.097
-115.49	-15.248
-116.63	-15.400
-117.78	-15.551
-118.93	-15.703
-120.08	-15.855
-121.23	-16.006
-122.39	-16.158
-123.86	-16.309
-125.33	-16.461
-126.70	-16.612
-128.05	-16.763
-129.41	-16.915
-130.76	-17.066
-132.12	-17.217
-133.66	-17.368
-135.58	-17.519
-137.50	-17.671
-139.41	-17.823
-141.33	-17.974
-143.25	-18.126
-144.41	-18.278
-146.49	-18.429
-147.82	-18.581
-149.16	-18.732
-150.49	-18.884
-151.82	-19.036
-153.16	-19.187
-154.49	-19.339
-155.82	-19.491
-157.16	-19.642
-158.64	-19.794
-161.13	-19.945
-163.63	-20.097
-166.12	-20.249
-168.62	-20.400
-173.19	-20.552
-177.63	-20.704
-181.80	-20.855
-185.98	-21.007
-190.15	-21.158
-195.96	-21.310
-203.34	-21.462
-212.15	-21.613
-224.08	-21.765
-236.01	-21.916
-247.94	-22.068
-259.87	-22.219
-271.79	-22.370
-286.22	-22.520
-318.17	-22.671
-370.19	-22.822
-433.45	-22.972
-515.88	-23.091
-386.18	-22.932
-323.12	-22.866