File: text_data/C6 - 10.txt
Load (N)	Extension (mm)

2.8066
2.8076	-0.057373
2.8086	-0.057373
2.8095	-0.057373
2.8105	-0.057373
2.8115	-0.057373
2.8125	-0.057373
2.8134	-0.057373
2.8144	-0.057373
2.8154	-0.057373
2.8163	-0.057373
2.8173	-0.057373
2.8183	-0.057373
2.8193	-0.057373
2.8202	-0.057373
2.8212	-0.057373
2.8222	-0.055059
3.6486	-0.034227
7.6191	0.0023442
7.6493	0.027660
5.4044	0.013678
-1.3272	-0.018599
-2.2405	-0.021973
-2.2807	-0.021973
-2.3209	-0.021973
-2.3611	-0.021973
-2.4013	-0.021973
-2.4415	-0.028069
-3.5318	-0.067820
-5.6343	-0.12670
-6.3323	-0.16899
-6.9000	-0.21295
-7.4677	-0.26372
-8.0353	-0.31449
-8.6030	-0.36441
-9.1706	-0.41493
-9.7383	-0.46676
-10.306	-0.51858
-10.874	-0.57057
-11.441	-0.62351
-12.009	-0.67644
-12.577	-0.72938
-13.144	-0.78246
-13.712	-0.83555
-14.133	-0.88863
-14.443	-0.94172
-14.752	-0.99473
-15.062	-1.0473
-15.371	-1.1000
-15.681	-1.1526
-15.990	-1.2052
-16.300	-1.2578
-16.609	-1.3104
-16.919	-1.3631
-17.229	-1.4157
-17.538	-1.4683
-17.848	-1.5209
-18.157	-1.5735
-18.467	-1.6260
-18.776	-1.6784
-19.086	-1.7308
-19.396	-1.7832
-19.705	-1.8356
-20.015	-1.8880
-20.324	-1.9405
-20.634	-1.9929
-20.943	-2.0453
-21.253	-2.0977
-21.563	-2.1501
-21.872	-2.2025
-22.182	-2.2548
-22.491	-2.3071
-22.801	-2.3594
-23.110	-2.4117
-23.420	-2.4640
-23.730	-2.5163
-24.039	-2.5686
-24.349	-2.6209
-24.658	-2.6732
-24.968	-2.7255
-25.277	-2.7778
-25.587	-2.8301
-25.896	-2.8824
-26.206	-2.9347
-26.516	-2.9870
-26.825	-3.0393
-27.135	-3.0916
-27.444	-3.1439
-27.754	-3.1962
-28.063	-3.2485
-28.373	-3.3008
-28.683	-3.3531
-28.992	-3.4054
-29.302	-3.4577
-29.611	-3.5100
-29.921	-3.5623
-30.230	-3.6146
-30.540	-3.6669
-30.850	-3.7191
-31.159	-3.7714
-31.469	-3.8236
-31.778	-3.8758
-32.088	-3.9280
-32.397	-3.9803
-32.707	-4.0325
-33.017	-4.0847
-33.326	-4.1370
-33.636	-4.1892
-33.945	-4.2414
-34.255	-4.2936
-34.564	-4.3459
-34.874	-4.3981
-35.183	-4.4503
-35.493	-4.5026
-35.803	-4.5548
-36.112	-4.6070
-36.422	-4.6593
-36.731	-4.7115
-37.041	-4.7637
-37.350	-4.8159
-37.660	-4.8682
-37.970	-4.9204
-38.279	-4.9726
-38.589	-5.0249
-38.898	-5.0771
-39.208	-5.1293
-39.517	-5.1815
-39.827	-5.2338
-40.137	-5.2860
-40.446	-5.3382
-40.756	-5.3905
-41.065	-5.4427
-41.375	-5.4949
-41.684	-5.5472
-41.994	-5.5994
-42.304	-5.6516
-42.613	-5.7038
-42.923	-5.7561
-43.232	-5.8083
-43.542	-5.8607
-43.849	-5.9130
-44.139	-5.9653
-44.428	-6.0176
-44.718	-6.0699
-45.007	-6.1222
-45.297	-6.1746
-45.587	-6.2269
-45.876	-6.2792
-46.166	-6.3315
-46.456	-6.3838
-46.745	-6.4361
-47.035	-6.4884
-47.325	-6.5408
-47.614	-6.5931
-47.904	-6.6454
-48.194	-6.6977
-48.483	-6.7500
-48.773	-6.8023
-49.063	-6.8546
-49.352	-6.9070
-49.646	-6.9593
-49.958	-7.0116
-50.271	-7.0639
-50.583	-7.1162
-50.895	-7.1685
-51.207	-7.2208
-51.519	-7.2732
-51.831	-7.3255
-52.143	-7.3778
-52.455	-7.4301
-52.767	-7.4824
-53.080	-7.5347
-53.392	-7.5871
-53.704	-7.6394
-54.016	-7.6917
-54.328	-7.7440
-54.640	-7.7963
-54.952	-7.8486
-55.264	-7.9009
-55.576	-7.9533
-55.889	-8.0056
-56.201	-8.0578
-56.513	-8.1099
-56.825	-8.1621
-57.137	-8.2142
-57.449	-8.2664
-57.761	-8.3185
-58.073	-8.3707
-58.385	-8.4228
-58.697	-8.4749
-59.010	-8.5271
-59.322	-8.5792
-59.634	-8.6314
-59.946	-8.6835
-60.258	-8.7356
-60.570	-8.7878
-60.882	-8.8399
-61.161	-8.8921
-61.410	-8.9442
-61.659	-8.9964
-61.908	-9.0485
-62.157	-9.1006
-62.406	-9.1528
-62.655	-9.2049
-62.904	-9.2571
-63.153	-9.3092
-63.402	-9.3613
-63.652	-9.4135
-63.901	-9.4656
-64.150	-9.5178
-64.399	-9.5699
-64.648	-9.6221
-64.896	-9.6742
-65.142	-9.7269
-65.387	-9.7801
-65.633	-9.8331
-65.879	-9.8853
-66.125	-9.9375
-66.371	-9.9897
-66.449	-10.023
-64.508	-10.012
-61.943	-10.004
-61.688	-10.004
-61.751	-10.004
-61.814	-10.004
-61.877	-10.004
-61.740	-9.9656
-57.256	-9.9202
-52.772	-9.8748
-48.288	-9.8294
-47.442	-9.7836
-47.210	-9.7313
-46.978	-9.6791
-46.746	-9.6268
-46.514	-9.5746
-46.283	-9.5223
-46.051	-9.4701
-45.819	-9.4178
-45.587	-9.3656
-45.355	-9.3133
-45.123	-9.2611
-44.891	-9.2088
-44.659	-9.1566
-44.428	-9.1043
-44.196	-9.0521
-43.964	-8.9998
-43.732	-8.9476
-43.500	-8.8953
-43.268	-8.8430
-43.036	-8.7908
-42.804	-8.7385
-42.572	-8.6863
-42.341	-8.6340
-42.109	-8.5818
-41.877	-8.5295
-41.635	-8.4773
-41.373	-8.4250
-41.112	-8.3728
-40.851	-8.3205
-40.589	-8.2683
-40.328	-8.2160
-40.067	-8.1638
-39.806	-8.1115
-39.544	-8.0593
-39.283	-8.0070
-39.022	-7.9548
-38.760	-7.9025
-38.499	-7.8503
-38.238	-7.7980
-37.977	-7.7458
-37.715	-7.6935
-37.454	-7.6413
-37.193	-7.5890
-36.931	-7.5368
-36.670	-7.4845
-36.409	-7.4322
-36.148	-7.3800
-35.886	-7.3277
-35.623	-7.2755
-35.353	-7.2232
-35.083	-7.1710
-34.812	-7.1187
-34.542	-7.0665
-34.272	-7.0142
-34.002	-6.9620
-33.732	-6.9097
-33.462	-6.8575
-33.192	-6.8052
-32.921	-6.7530
-32.651	-6.7007
-32.381	-6.6485
-32.111	-6.5962
-31.841	-6.5440
-31.571	-6.4917
-31.301	-6.4395
-31.030	-6.3872
-30.760	-6.3350
-30.490	-6.2827
-30.220	-6.2305
-29.950	-6.1782
-29.680	-6.1259
-29.410	-6.0737
-29.140	-6.0214
-28.869	-5.9692
-28.599	-5.9169
-28.329	-5.8647
-28.059	-5.8124
-27.789	-5.7602
-27.519	-5.7079
-27.249	-5.6557
-26.978	-5.6034
-26.666	-5.5512
-26.321	-5.4989
-25.975	-5.4467
-25.629	-5.3944
-25.284	-5.3422
-24.938	-5.2899
-24.592	-5.2377
-24.247	-5.1854
-23.901	-5.1332
-23.555	-5.0809
-23.210	-5.0287
-22.864	-4.9764
-22.519	-4.9242
-22.174	-4.8719
-21.914	-4.8196
-21.655	-4.7674
-21.396	-4.7151
-21.136	-4.6629
-20.877	-4.6106
-20.618	-4.5584
-20.358	-4.5061
-20.099	-4.4539
-19.840	-4.4016
-19.580	-4.3494
-19.321	-4.2971
-19.062	-4.2449
-18.802	-4.1926
-18.543	-4.1404
-18.284	-4.0881
-18.024	-4.0359
-17.765	-3.9836
-17.506	-3.9314
-17.247	-3.8791
-16.987	-3.8269
-16.728	-3.7746
-16.469	-3.7224
-16.209	-3.6701
-15.950	-3.6179
-15.691	-3.5656
-15.431	-3.5133
-15.172	-3.4611
-14.913	-3.4088
-14.653	-3.3566
-14.394	-3.3043
-14.135	-3.2521
-13.875	-3.1998
-13.616	-3.1476
-13.357	-3.0953
-13.097	-3.0431
-12.838	-2.9908
-12.579	-2.9386
-12.320	-2.8863
-12.060	-2.8341
-11.801	-2.7818
-11.542	-2.7296
-11.282	-2.6773
-11.023	-2.6251
-10.764	-2.5728
-10.504	-2.5206
-10.245	-2.4683
-9.9546	-2.4161
-9.6553	-2.3638
-9.3560	-2.3116
-9.0567	-2.2593
-8.7574	-2.2071
-8.4581	-2.1549
-8.1588	-2.1026
-7.8595	-2.0504
-7.5602	-1.9981
-7.2609	-1.9459
-6.9616	-1.8937
-6.6312	-1.8414
-6.2817	-1.7892
-5.9321	-1.7370
-5.5826	-1.6847
-5.2331	-1.6325
-4.8835	-1.5802
-4.5340	-1.5280
-4.1844	-1.4758
-3.8893	-1.4235
-3.6235	-1.3713
-3.3577	-1.3191
-3.0919	-1.2668
-2.8262	-1.2146
-2.5604	-1.1623
-2.2946	-1.1101
-1.9497	-1.0579
-1.5175	-1.0056
-1.0853	-0.95340
-0.65310	-0.90116
-0.22089	-0.84892
0.21133	-0.79669
0.64354	-0.74445
1.0758	-0.69221
1.5080	-0.63997
1.9402	-0.58774
2.3724	-0.53550
2.8046	-0.48326
3.2368	-0.43102
3.6690	-0.37879
4.1013	-0.32655
4.5335	-0.27431
4.8031	-0.22207
4.9309	-0.16984
5.0587	-0.11760
5.1865	-0.065362
5.3144	-0.013125
5.4422	0.039113
5.5700	0.091350
5.6978	0.14359
5.7785	0.19583
5.8226	0.24806
5.8667	0.29994
5.9108	0.35182
5.9549	0.40369
5.9990	0.45556
6.0748	0.50743
6.2883	0.55930
6.5017	0.61117
6.7151	0.66304
6.9286	0.71492
7.1420	0.76679
7.3554	0.81866
7.8216	0.87053
8.3468	0.92240
8.8719	0.97448
9.3970	1.0268
9.9222	1.0792
10.447	1.1315
10.972	1.1839
11.498	1.2363
12.023	1.2886
12.548	1.3410
13.073	1.3933
13.598	1.4457
14.123	1.4981
14.543	1.5504
14.663	1.6028
14.783	1.6551
14.904	1.7075
15.024	1.7598
15.145	1.8122
15.265	1.8646
15.385	1.9169
15.506	1.9693
15.626	2.0216
15.747	2.0740
15.867	2.1263
15.987	2.1787
16.108	2.2311
16.228	2.2834
16.349	2.3358
16.469	2.3881
16.589	2.4405
16.710	2.4928
16.830	2.5452
17.050	2.5976
17.466	2.6499
17.883	2.7023
18.299	2.7546
18.716	2.8070
19.132	2.8593
19.549	2.9117
19.965	2.9641
20.382	3.0164
20.798	3.0688
21.215	3.1211
21.631	3.1735
22.048	3.2258
22.464	3.2782
22.881	3.3306
23.297	3.3829
23.714	3.4353
23.905	3.4876
23.944	3.5398
23.983	3.5920
24.022	3.6443
24.061	3.6965
24.101	3.7487
24.140	3.8009
24.179	3.8532
24.218	3.9054
24.257	3.9576
24.296	4.0099
24.335	4.0621
24.375	4.1143
24.414	4.1666
24.453	4.2188
24.630	4.2710
24.973	4.3233
25.316	4.3755
25.660	4.4277
26.003	4.4800
26.346	4.5322
26.690	4.5844
27.033	4.6367
27.418	4.6889
27.849	4.7411
28.279	4.7933
28.709	4.8456
29.139	4.8978
29.570	4.9500
30.000	5.0023
30.430	5.0545
30.860	5.1067
31.290	5.1590
31.721	5.2112
32.062	5.2634
32.218	5.3157
32.374	5.3680
32.529	5.4203
32.685	5.4726
32.841	5.5248
32.997	5.5771
33.152	5.6294
33.308	5.6817
33.511	5.7340
33.751	5.7863
33.991	5.8385
34.230	5.8908
34.470	5.9431
34.710	5.9954
34.950	6.0477
35.190	6.0999
35.430	6.1522
35.670	6.2045
35.910	6.2568
36.229	6.3091
36.669	6.3613
37.108	6.4136
37.548	6.4659
37.988	6.5182
38.427	6.5705
38.867	6.6227
39.306	6.6750
39.746	6.7273
40.186	6.7797
40.625	6.8322
41.065	6.8847
41.505	6.9371
41.944	6.9893
42.384	7.0416
42.824	7.0938
43.187	7.1461
43.461	7.1983
43.734	7.2506
44.007	7.3028
44.281	7.3551
44.554	7.4073
44.827	7.4596
45.101	7.5118
45.374	7.5641
45.647	7.6163
45.788	7.6686
45.912	7.7208
46.037	7.7731
46.161	7.8253
46.285	7.8776
46.410	7.9298
46.534	7.9821
46.659	8.0343
46.783	8.0852
46.907	8.1366
47.032	8.1894
47.156	8.2422
47.280	8.2948
47.405	8.3466
47.678	8.3983
48.074	8.4501
48.470	8.5019
48.867	8.5536
49.263	8.6060
49.659	8.6588
50.056	8.7111
50.452	8.7609
50.849	8.8107
51.245	8.8642
51.641	8.9188
52.038	8.9733
52.434	9.0265
52.830	9.0788
53.227	9.1311
53.623	9.1833
54.020	9.2356
54.412	9.2879
54.396	9.3401
54.380	9.3924
54.364	9.4447
54.348	9.4970
54.332	9.5492
54.316	9.6015
54.300	9.6538
54.284	9.7060
54.267	9.7583
54.251	9.8106
54.235	9.8628
54.219	9.9151
54.203	9.9674
54.672	10.009
52.437	9.9819
45.845	9.9116
45.021	9.8455
44.197	9.7968
43.373	9.7480
42.549	9.6993
41.725	9.6506
40.902	9.6018
40.078	9.5531
39.254	9.5043
38.430	9.4545
37.865	9.4023
37.553	9.3500
37.241	9.2977
36.930	9.2455
36.618	9.1932
36.307	9.1409
35.995	9.0887
35.684	9.0364
35.372	8.9842
35.060	8.9319
34.749	8.8796
34.437	8.8274
34.126	8.7751
33.814	8.7228
33.503	8.6706
33.191	8.6183
32.880	8.5660
32.568	8.5138
32.256	8.4615
31.945	8.4092
31.633	8.3570
31.322	8.3047
31.010	8.2524
30.699	8.2002
30.387	8.1479
30.075	8.0956
29.764	8.0434
29.452	7.9911
29.141	7.9388
28.829	7.8866
28.518	7.8343
28.206	7.7820
27.894	7.7298
27.583	7.6775
27.271	7.6252
26.960	7.5730
26.648	7.5207
26.337	7.4684
26.025	7.4162
25.714	7.3639
25.402	7.3116
25.090	7.2594
24.779	7.2071
24.467	7.1548
24.156	7.1026
23.844	7.0503
23.533	6.9981
23.221	6.9458
22.909	6.8935
22.598	6.8413
22.286	6.7890
21.975	6.7367
21.663	6.6845
21.352	6.6322
21.040	6.5799
20.728	6.5277
20.417	6.4754
20.105	6.4231
19.794	6.3709
19.482	6.3186
19.171	6.2663
18.859	6.2141
18.548	6.1618
18.236	6.1095
17.924	6.0573
17.613	6.0050
17.301	5.9527
16.990	5.9005
16.678	5.8482
16.367	5.7959
16.055	5.7437
15.743	5.6914
15.432	5.6391
15.120	5.5869
14.809	5.5346
14.497	5.4823
14.186	5.4301
13.874	5.3778
13.565	5.3255
13.260	5.2733
12.954	5.2210
12.649	5.1687
12.343	5.1165
12.038	5.0642
11.733	5.0120
11.427	4.9597
11.122	4.9074
10.817	4.8552
10.511	4.8029
10.206	4.7506
9.9007	4.6984
9.5953	4.6461
9.2899	4.5938
8.9846	4.5416
8.6792	4.4893
8.3739	4.4370
8.0685	4.3848
7.7632	4.3325
7.4578	4.2802
7.1525	4.2280
6.8471	4.1757
6.5417	4.1234
6.2364	4.0712
5.9310	4.0189
5.6257	3.9666
5.3203	3.9144
5.0150	3.8621
4.7096	3.8098
4.4043	3.7576
4.0989	3.7053
3.7935	3.6530
3.4882	3.6008
3.1828	3.5485
2.8775	3.4962
2.5721	3.4440
2.2668	3.3917
1.9614	3.3394
1.6561	3.2872
1.3507	3.2349
1.0453	3.1826
0.73998	3.1304
0.43463	3.0781
0.12927	3.0258
-0.17608	2.9736
-0.48144	2.9213
-0.78680	2.8691
-1.0922	2.8168
-1.3975	2.7645
-1.7029	2.7123
-2.0082	2.6600
-2.3136	2.6077
-2.6189	2.5555
-2.9020	2.5032
-3.1850	2.4509
-3.4679	2.3987
-3.7508	2.3464
-4.0337	2.2941
-4.3166	2.2419
-4.5995	2.1896
-4.8824	2.1373
-5.1654	2.0851
-5.4483	2.0328
-5.7312	1.9805
-6.0141	1.9283
-6.2970	1.8760
-6.5799	1.8237
-6.8628	1.7715
-7.1458	1.7192
-7.4287	1.6669
-7.7116	1.6147
-7.9945	1.5624
-8.2774	1.5101
-8.5603	1.4579
-8.8432	1.4056
-9.1262	1.3533
-9.4091	1.3011
-9.6920	1.2488
-9.9749	1.1965
-10.258	1.1443
-10.541	1.0920
-10.824	1.0397
-11.107	0.98748
-11.389	0.93522
-11.672	0.88295
-11.955	0.83069
-12.238	0.77845
-12.521	0.72625
-12.804	0.67405
-13.087	0.62185
-13.370	0.56964
-13.653	0.51744
-13.936	0.46524
-14.219	0.41304
-14.502	0.36083
-14.784	0.30863
-15.067	0.25643
-15.350	0.20422
-15.633	0.15202
-15.916	0.099820
-16.199	0.047617
-16.482	-0.0045857
-16.780	-0.056788
-17.088	-0.10899
-17.396	-0.16119
-17.705	-0.21340
-18.013	-0.26560
-18.322	-0.31780
-18.630	-0.37000
-18.939	-0.42221
-19.247	-0.47441
-19.555	-0.52661
-19.864	-0.57881
-20.172	-0.63102
-20.471	-0.68322
-20.764	-0.73542
-21.056	-0.78762
-21.349	-0.83983
-21.641	-0.89203
-21.934	-0.94423
-22.227	-0.99644
-22.519	-1.0486
-22.812	-1.1008
-23.105	-1.1530
-23.397	-1.2052
-23.690	-1.2574
-23.982	-1.3097
-24.275	-1.3619
-24.568	-1.4141
-24.860	-1.4663
-25.153	-1.5185
-25.446	-1.5707
-25.738	-1.6229
-26.031	-1.6751
-26.324	-1.7273
-26.616	-1.7795
-26.909	-1.8317
-27.201	-1.8839
-27.494	-1.9361
-27.787	-1.9883
-28.079	-2.0405
-28.372	-2.0927
-28.665	-2.1449
-28.938	-2.1971
-29.210	-2.2493
-29.481	-2.3015
-29.753	-2.3537
-30.025	-2.4059
-30.296	-2.4581
-30.568	-2.5103
-30.840	-2.5625
-31.111	-2.6147
-31.383	-2.6669
-31.655	-2.7191
-31.926	-2.7713
-32.198	-2.8242
-32.470	-2.8770
-32.741	-2.9299
-33.013	-2.9828
-33.285	-3.0357
-33.557	-3.0885
-33.828	-3.1410
-34.100	-3.1933
-34.372	-3.2455
-34.643	-3.2978
-34.915	-3.3500
-35.187	-3.4023
-35.458	-3.4545
-35.730	-3.5068
-36.002	-3.5590
-36.273	-3.6113
-36.546	-3.6635
-36.822	-3.7158
-37.097	-3.7680
-37.373	-3.8203
-37.648	-3.8725
-37.924	-3.9248
-38.200	-3.9770
-38.475	-4.0293
-38.751	-4.0815
-39.026	-4.1338
-39.302	-4.1860
-39.578	-4.2383
-39.853	-4.2905
-40.129	-4.3428
-40.404	-4.3950
-40.680	-4.4473
-40.956	-4.4995
-41.231	-4.5518
-41.507	-4.6040
-41.782	-4.6563
-42.058	-4.7085
-42.334	-4.7608
-42.609	-4.8130
-42.885	-4.8653
-43.160	-4.9175
-43.436	-4.9698
-43.712	-5.0220
-43.987	-5.0743
-44.263	-5.1266
-44.538	-5.1788
-44.814	-5.2311
-45.090	-5.2833
-45.365	-5.3356
-45.641	-5.3878
-45.916	-5.4401
-46.195	-5.4923
-46.492	-5.5446
-46.789	-5.5968
-47.086	-5.6491
-47.382	-5.7013
-47.679	-5.7536
-47.976	-5.8058
-48.273	-5.8581
-48.570	-5.9103
-48.866	-5.9626
-49.163	-6.0148
-49.460	-6.0671
-49.757	-6.1193
-50.053	-6.1716
-50.350	-6.2238
-50.647	-6.2761
-50.944	-6.3283
-51.240	-6.3806
-51.537	-6.4328
-51.834	-6.4851
-52.131	-6.5373
-52.427	-6.5896
-52.724	-6.6418
-53.021	-6.6941
-53.318	-6.7463
-53.614	-6.7986
-53.911	-6.8508
-54.208	-6.9031
-54.505	-6.9553
-54.802	-7.0076
-55.098	-7.0598
-55.395	-7.1121
-55.692	-7.1643
-55.989	-7.2166
-56.285	-7.2688
-56.582	-7.3211
-56.879	-7.3733
-57.176	-7.4256
-57.472	-7.4778
-57.769	-7.5301
-58.066	-7.5823
-58.363	-7.6346
-58.659	-7.6868
-58.956	-7.7391
-59.253	-7.7913
-59.550	-7.8436
-59.846	-7.8958
-60.143	-7.9481
-60.440	-8.0003
-60.737	-8.0526
-61.034	-8.1049
-61.330	-8.1572
-61.627	-8.2095
-61.924	-8.2617
-62.221	-8.3140
-62.505	-8.3663
-62.725	-8.4186
-62.946	-8.4709
-63.166	-8.5232
-63.387	-8.5755
-63.607	-8.6278
-63.828	-8.6801
-64.048	-8.7324
-64.269	-8.7847
-64.489	-8.8369
-64.710	-8.8892
-64.930	-8.9415
-65.162	-8.9938
-65.437	-9.0461
-65.711	-9.0984
-65.986	-9.1507
-66.261	-9.2030
-66.536	-9.2553
-66.811	-9.3076
-67.085	-9.3599
-67.360	-9.4121
-67.635	-9.4644
-67.910	-9.5167
-68.185	-9.5690
-68.459	-9.6213
-68.734	-9.6736
-69.009	-9.7259
-69.284	-9.7782
-69.559	-9.8305
-69.833	-9.8828
-70.108	-9.9350
-70.383	-9.9861
-70.323	-10.004
-64.241	-9.9503
-56.653	-9.8933
-51.178	-9.8468
-48.694	-9.8004
-47.452	-9.7771