File: text_data/C6.txt
Load (N)	Extension (mm)

3.6115	-0.064087
3.6196	-0.064087
3.6277	-0.064087
3.6357	-0.064087
3.6438	-0.064087
3.6519	-0.064087
3.6599	-0.064087
8.5678	-0.0041677
-1.1875	-0.033487
-0.75124	-0.033178
-0.38110	-0.038811
-5.6306	-0.17048
-7.1499	-0.30723
-8.6692	-0.45399
-10.188	-0.59985
-11.708	-0.74828
-13.227	-0.89676
-14.746	-1.0457
-15.827	-1.1947
-16.705	-1.3436
-17.583	-1.4941
-18.461	-1.6425
-19.339	-1.7910
-20.217	-1.9410
-21.095	-2.0865
-21.973	-2.2346
-22.851	-2.3827
-23.729	-2.5308
-24.607	-2.6789
-25.485	-2.8271
-26.363	-2.9762
-27.240	-3.1238
-28.118	-3.2714
-28.996	-3.4193
-29.874	-3.5674
-30.752	-3.7154
-31.630	-3.8635
-32.508	-4.0116
-33.386	-4.1597
-34.264	-4.3077
-35.142	-4.4556
-36.020	-4.6033
-36.898	-4.7510
-37.776	-4.8986
-38.654	-5.0463
-39.532	-5.1940
-40.410	-5.3417
-41.288	-5.4893
-42.166	-5.6371
-43.044	-5.7851
-43.922	-5.9331
-44.800	-6.0811
-45.663	-6.2291
-46.524	-6.3771
-47.386	-6.5251
-48.247	-6.6731
-49.109	-6.8211
-49.970	-6.9691
-50.831	-7.1171
-51.693	-7.2651
-52.554	-7.4131
-53.415	-7.5611
-54.277	-7.7091
-55.138	-7.8571
-56.000	-8.0051
-56.861	-8.1531
-57.722	-8.3011
-58.584	-8.4488
-59.445	-8.5964
-60.306	-8.7441
-61.168	-8.8917
-62.029	-9.0394
-62.634	-9.1871
-63.053	-9.3348
-63.620	-9.4825
-64.495	-9.6302
-65.369	-9.7779
-66.243	-9.9255
-67.117	-10.073
-67.991	-10.221
-68.865	-10.369
-69.739	-10.516
-70.613	-10.664
-71.487	-10.812
-72.361	-10.959
-73.235	-11.107
-74.109	-11.255
-74.983	-11.403
-75.857	-11.550
-76.731	-11.698
-77.605	-11.846
-78.479	-11.994
-79.353	-12.142
-80.227	-12.289
-81.101	-12.437
-81.975	-12.585
-82.849	-12.733
-83.737	-12.881
-84.641	-13.029
-85.544	-13.176
-86.447	-13.324
-87.351	-13.472
-88.254	-13.620
-89.157	-13.768
-90.060	-13.916
-90.963	-14.063
-91.866	-14.211
-92.769	-14.359
-93.672	-14.507
-94.575	-14.655
-95.478	-14.803
-96.381	-14.950
-97.284	-15.098
-98.148	-15.246
-98.962	-15.394
-99.775	-15.542
-100.59	-15.690
-101.40	-15.837
-102.22	-15.985
-103.03	-16.133
-103.84	-16.281
-104.71	-16.429
-105.73	-16.577
-106.74	-16.725
-107.76	-16.872
-108.78	-17.020
-109.80	-17.168
-110.81	-17.316
-111.83	-17.464
-112.85	-17.612
-113.86	-17.759
-114.88	-17.907
-115.90	-18.055
-116.92	-18.203
-117.93	-18.351
-118.95	-18.499
-119.97	-18.646
-120.97	-18.794
-121.90	-18.942
-122.83	-19.090
-123.76	-19.238
-124.68	-19.385
-125.61	-19.533
-126.54	-19.681
-127.50	-19.828
-128.51	-19.976
-129.52	-20.124
-130.53	-20.271
-131.54	-20.419
-132.58	-20.567
-133.92	-20.715
-135.26	-20.862
-136.60	-21.010
-138.98	-21.158
-141.83	-21.305
-147.50	-21.453
-153.50	-21.601
-175.21	-21.749
-202.52	-21.896
-251.41	-22.042
-327.29	-22.187
-410.84	-22.333
-500.24	-22.460
-513.33	-22.467
-512.43	-22.468
-438.47	-22.356
-313.89	-22.212
-238.00	-22.068
-167.52	-21.924
-139.24	-21.781
-134.11	-21.637
-128.98	-21.490
-123.86	-21.343
-118.73	-21.195
-113.60	-21.047
-108.48	-20.899
-103.35	-20.751
-98.223	-20.604
-95.832	-20.456
-95.056	-20.308
-94.281	-20.160
-93.505	-20.013
-92.730	-19.865
-91.954	-19.717
-91.179	-19.569
-90.403	-19.421
-89.628	-19.274
-88.852	-19.126
-88.076	-18.978
-87.301	-18.830
-86.525	-18.683
-85.750	-18.535
-84.974	-18.387
-84.199	-18.239
-83.423	-18.091
-82.648	-17.944
-81.872	-17.796
-81.097	-17.648
-80.339	-17.500
-79.582	-17.353
-78.826	-17.205
-78.070	-17.057
-77.313	-16.909
-76.557	-16.762
-75.801	-16.614
-75.045	-16.466
-74.053	-16.318
-72.975	-16.170
-71.898	-16.023
-70.820	-15.875
-68.799	-15.727
-66.714	-15.579
-66.432	-15.432
-66.149	-15.284
-65.867	-15.136
-65.584	-14.987
-65.302	-14.836
-65.019	-14.688
-64.737	-14.540
-64.454	-14.392
-63.446	-14.245
-62.034	-14.097
-60.622	-13.949
-59.210	-13.801
-58.203	-13.654
-57.205	-13.506
-56.206	-13.358
-55.208	-13.210
-54.428	-13.063
-54.588	-12.915
-54.747	-12.767
-54.907	-12.620
-55.067	-12.472
-54.944	-12.324
-54.810	-12.176
-54.677	-12.029
-53.017	-11.881
-51.113	-11.733
-49.226	-11.585
-47.728	-11.437
-46.229	-11.290
-45.062	-11.142
-45.028	-10.994
-44.995	-10.846
-44.962	-10.698
-44.929	-10.550
-44.895	-10.402
-44.393	-10.255
-43.823	-10.107
-43.252	-9.9589
-42.014	-9.8110
-40.083	-9.6633
-38.153	-9.5156
-36.222	-9.3680
-34.292	-9.2203
-33.680	-9.0727
-33.091	-8.9250
-32.503	-8.7773
-31.915	-8.6297
-31.326	-8.4820
-31.003	-8.3343
-31.177	-8.1867
-31.352	-8.0390
-31.527	-7.8914
-31.702	-7.7437
-31.387	-7.5960
-29.778	-7.4484
-28.169	-7.2977
-26.560	-7.1490
-24.951	-7.0012
-23.987	-6.8534
-23.711	-6.7055
-23.435	-6.5577
-23.159	-6.4099
-23.110	-6.2621
-23.255	-6.1142
-23.400	-5.9664
-23.545	-5.8186
-22.009	-5.6707
-20.235	-5.5229
-18.461	-5.3751
-17.422	-5.2273
-16.596	-5.0794
-15.770	-4.9316
-14.943	-4.7838
-14.117	-4.6356
-13.897	-4.4878
-13.931	-4.3400
-13.965	-4.1922
-13.999	-4.0444
-14.034	-3.8966
-13.127	-3.7488
-11.671	-3.6010
-10.216	-3.4532
-8.7605	-3.3054
-7.8270	-3.1576
-7.6603	-3.0098
-7.4935	-2.8620
-7.3268	-2.7142
-7.1600	-2.5664
-6.9933	-2.4186
-6.8265	-2.2708
-5.9700	-2.1230
-3.8890	-1.9753
-1.8079	-1.8275
0.27313	-1.6797
0.56729	-1.5319
0.82285	-1.3841
1.0784	-1.2363
1.3340	-1.0885
1.5895	-0.94067
2.0134	-0.79288
2.7597	-0.64508
3.5060	-0.49728
4.5017	-0.34948
6.2724	-0.20169
8.0431	-0.053890
8.6438	0.093907
8.7606	0.24209
8.8774	0.39119
8.9941	0.53856
9.1779	0.68572
9.4340	0.83288
9.6901	0.98003
10.507	1.1278
12.236	1.2756
13.965	1.4234
15.694	1.5712
17.423	1.7190
18.640	1.8668
18.710	2.0146
18.781	2.1624
18.851	2.3102
18.921	2.4580
18.991	2.6058
19.061	2.7536
19.796	2.9014
21.085	3.0491
22.374	3.1969
23.662	3.3447
24.951	3.4925
26.240	3.6403
26.458	3.7881
26.570	3.9359
26.682	4.0837
26.794	4.2315
26.805	4.3793
26.812	4.5271
27.330	4.6749
28.530	4.8227
29.729	4.9705
30.929	5.1183
32.129	5.2661
33.328	5.4163
34.528	5.5641
35.039	5.7119
35.206	5.8597
35.373	6.0075
35.540	6.1553
35.889	6.3031
37.210	6.4508
38.531	6.5986
39.853	6.7464
41.174	6.8942
42.495	7.0420
43.817	7.1898
44.802	7.3376
45.273	7.4854
45.744	7.6332
46.215	7.7810
46.686	7.9287
47.156	8.0765
47.254	8.2243
47.233	8.3710
48.870	8.5055
50.327	8.6793
51.410	8.8170
52.492	8.9644
53.574	9.1122
54.656	9.2600
55.738	9.4078
55.890	9.5556
55.717	9.7034
55.544	9.8512
55.372	9.9990
55.632	10.147
57.316	10.295
59.000	10.442
60.684	10.590
62.368	10.738
63.804	10.886
63.949	11.034
64.094	11.181
64.239	11.329
64.384	11.477
64.529	11.625
65.535	11.773
66.746	11.920
67.958	12.068
69.170	12.216
70.447	12.364
71.734	12.512
73.021	12.659
74.100	12.807
74.340	12.955
74.581	13.101
74.821	13.247
75.062	13.394
75.302	13.542
76.022	13.690
77.967	13.838
79.913	13.986
81.859	14.133
83.263	14.281
83.599	14.429
83.934	14.577
84.269	14.725
84.605	14.872
84.940	15.020
85.275	15.168
85.611	15.316
85.946	15.464
87.337	15.611
89.429	15.759
91.522	15.907
92.311	16.055
92.740	16.203
93.168	16.350
93.596	16.498
94.024	16.646
94.452	16.794
94.835	16.942
95.187	17.089
95.614	17.237
97.569	17.385
99.525	17.533
101.29	17.681
102.43	17.829
103.57	17.976
104.70	18.124
105.09	18.272
105.35	18.420
105.60	18.567
105.86	18.715
106.12	18.863
106.37	19.011
107.20	19.158
109.00	19.306
110.80	19.454
112.60	19.602
114.40	19.750
115.71	19.897
115.86	20.045
116.01	20.193
116.16	20.341
116.31	20.488
116.46	20.636
116.94	20.785
117.45	20.933
118.17	21.082
120.43	21.230
122.69	21.378
124.95	21.526
126.52	21.674
127.27	21.822
128.02	21.970
128.77	22.117
129.31	22.265
129.14	22.413
128.97	22.561
129.75	22.709
131.86	22.856
133.97	23.004
136.08	23.152
138.27	23.300
140.37	23.447
140.94	23.595
141.51	23.743
142.08	23.891
142.66	24.039
143.23	24.186
143.79	24.334
144.26	24.482
145.01	24.630
147.08	24.777
149.15	24.925
151.23	25.073
153.30	25.221
155.37	25.369
156.06	25.516
156.43	25.664
156.81	25.812
157.18	25.960
157.44	26.107
157.43	26.255
157.55	26.403
160.10	26.551
162.66	26.698
165.21	26.846
167.76	26.994
169.88	27.142
170.80	27.290
171.71	27.437
172.63	27.585
173.55	27.733
174.46	27.881
174.27	28.028
173.96	28.176
176.54	28.324
179.32	28.472
182.09	28.620
184.58	28.767
186.84	28.915
189.10	29.063
191.36	29.211
192.94	29.358
193.12	29.506
193.30	29.655
193.47	29.803
193.65	29.952
193.83	30.100
196.36	30.248
199.92	30.396
203.49	30.544
207.06	30.691
210.62	30.839
213.22	30.987
213.91	31.135
214.60	31.283
215.29	31.431
215.98	31.578
216.73	31.726
217.61	31.874
218.53	32.022
222.71	32.170
226.89	32.318
231.07	32.465
235.25	32.613
239.43	32.761
241.83	32.909
243.31	33.057
244.79	33.204
246.27	33.352
247.75	33.500
249.26	33.648
250.83	33.795
253.64	33.943
258.94	34.091
264.23	34.238
269.52	34.386
274.82	34.534
280.11	34.682
285.40	34.829
290.70	34.977
295.02	35.125
298.10	35.273
301.19	35.420
304.27	35.568
307.36	35.716
309.94	35.863
314.54	36.011
320.99	36.159
327.45	36.307
333.90	36.454
340.36	36.602
345.15	36.750
347.94	36.897
350.13	37.045
351.67	37.192
353.21	37.340
359.46	37.488
373.36	37.635
385.53	37.783
396.91	37.930
408.29	38.078
419.67	38.225
431.05	38.373
442.56	38.520
456.45	38.668
470.34	38.816
484.23	38.959
484.22	38.987
419.73	38.832
381.44	38.692
356.55	38.546
331.66	38.398
314.59	38.250
302.73	38.103
290.86	37.955
279.00	37.807
267.14	37.659
261.01	37.512
256.22	37.364
251.44	37.216
246.65	37.069
241.86	36.921
237.07	36.773
232.29	36.625
227.50	36.478
223.39	36.330
220.53	36.182
217.66	36.035
214.79	35.887
211.92	35.739
209.05	35.591
206.18	35.444
203.31	35.296
200.80	35.148
198.71	35.001
196.61	34.853
194.52	34.705
192.42	34.557
190.33	34.410
188.24	34.262
186.14	34.114
184.06	33.966
182.50	33.819
180.94	33.671
179.38	33.523
177.82	33.375
176.27	33.228
174.71	33.080
173.15	32.932
171.59	32.784
170.04	32.636
168.48	32.489
166.93	32.341
165.68	32.193
164.43	32.045
163.18	31.898
161.93	31.749
160.68	31.601
159.44	31.453
158.19	31.305
156.94	31.157
155.69	31.009
154.44	30.861
153.19	30.713
151.94	30.565
150.74	30.417
149.61	30.269
148.49	30.121
147.37	29.973
146.24	29.825
145.12	29.677
144.00	29.530
142.88	29.382
141.75	29.234
140.63	29.086
139.51	28.939
138.38	28.791
137.26	28.643
136.14	28.495
135.01	28.347
133.89	28.199
132.85	28.052
131.83	27.904
130.81	27.756
129.80	27.608
128.78	27.460
127.76	27.312
126.74	27.164
125.72	27.017
124.70	26.869
123.68	26.721
122.66	26.573
121.64	26.425
120.62	26.277
119.60	26.130
118.58	25.982
117.56	25.834
116.54	25.687
115.52	25.539
114.52	25.391
113.54	25.244
112.57	25.096
111.59	24.949
110.62	24.801
109.64	24.653
108.67	24.506
107.69	24.358
106.72	24.210
105.74	24.063
104.77	23.915
103.79	23.767
102.82	23.619
101.84	23.471
100.86	23.323
99.889	23.175
98.914	23.027
97.938	22.879
96.963	22.732
95.995	22.583
95.112	22.435
94.228	22.286
93.344	22.138
92.461	21.994
91.577	21.845
90.694	21.694
89.810	21.546
88.926	21.398
88.043	21.251
87.159	21.103
86.275	20.955
85.392	20.807
84.508	20.659
83.624	20.512
82.741	20.364
81.857	20.216
80.973	20.068
80.083	19.920
79.179	19.772
78.275	19.625
77.371	19.477
76.468	19.329
75.564	19.181
74.660	19.033
73.756	18.885
72.852	18.738
71.948	18.590
71.044	18.442
70.140	18.294
69.237	18.146
68.333	17.998
67.429	17.851
66.568	17.703
65.709	17.555
64.850	17.407
63.991	17.259
63.132	17.111
62.273	16.964
61.414	16.816
60.555	16.668
59.696	16.520
58.837	16.372
57.979	16.225
57.120	16.077
56.261	15.930
55.402	15.782
54.543	15.635
53.712	15.487
52.882	15.339
52.051	15.192
51.220	15.044
50.389	14.897
49.558	14.749
48.727	14.601
47.896	14.453
47.065	14.305
46.234	14.158
45.403	14.010
44.572	13.862
43.742	13.714
42.911	13.566
42.080	13.418
41.249	13.270
40.418	13.122
39.587	12.974
38.756	12.826
37.925	12.679
37.094	12.531
36.263	12.383
35.432	12.235
34.604	12.087
33.805	11.940
33.006	11.792
32.206	11.644
31.407	11.496
30.608	11.348
29.809	11.200
29.010	11.053
28.211	10.905
27.412	10.757
26.613	10.609
25.814	10.461
25.014	10.314
24.215	10.166
23.416	10.018
22.617	9.8701
21.818	9.7222
21.019	9.5744
20.220	9.4265
19.421	9.2786
18.622	9.1307
17.822	8.9828
17.023	8.8349
16.224	8.6870
15.425	8.5391
14.626	8.3912
13.827	8.2433
13.028	8.0953
12.229	7.9474
11.431	7.7995
10.652	7.6516
9.8736	7.5037
9.0951	7.3558
8.3167	7.2079
7.5382	7.0600
6.7598	6.9122
5.9813	6.7643
5.2028	6.6164
4.4244	6.4685
3.6459	6.3206
2.8675	6.1727
2.0890	6.0248
1.3106	5.8770
0.53209	5.7291
-0.22829	5.5812
-0.85016	5.4333
-1.4720	5.2854
-2.0939	5.1375
-2.7974	4.9896
-3.5997	4.8417
-4.4020	4.6938
-5.2044	4.5460
-6.0067	4.3981
-6.8090	4.2502
-7.6114	4.1023
-8.4137	3.9544
-9.2160	3.8065
-10.018	3.6586
-10.821	3.5107
-11.623	3.3629
-12.425	3.2150
-13.228	3.0671
-14.030	2.9192
-14.832	2.7713
-15.635	2.6238
-16.437	2.4764
-17.239	2.3290
-18.042	2.1815
-18.844	2.0341
-19.601	1.8863
-20.351	1.7385
-21.101	1.5906
-21.852	1.4428
-22.602	1.2950
-23.353	1.1471
-24.103	0.99931
-24.853	0.85148
-25.604	0.70365
-26.387	0.55582
-27.194	0.40799
-28.002	0.26015
-28.809	0.11232
-29.616	-0.035512
-30.423	-0.18334
-31.230	-0.33118
-32.037	-0.47901
-32.844	-0.62684
-33.651	-0.77467
-34.458	-0.92297
-35.265	-1.0713
-36.072	-1.2196
-36.880	-1.3679
-37.687	-1.5159
-38.494	-1.6636
-39.218	-1.8113
-39.921	-1.9590
-40.692	-2.1067
-41.519	-2.2544
-42.346	-2.4021
-43.173	-2.5498
-44.000	-2.6975
-44.827	-2.8452
-45.654	-2.9929
-46.481	-3.1406
-47.308	-3.2883
-48.134	-3.4360
-48.961	-3.5838
-49.788	-3.7315
-50.615	-3.8792
-51.442	-4.0270
-52.214	-4.1747
-52.967	-4.3224
-53.719	-4.4702
-54.472	-4.6179
-55.225	-4.7656
-55.977	-4.9134
-56.730	-5.0611
-57.483	-5.2088
-58.236	-5.3566
-58.988	-5.5043
-59.741	-5.6520
-60.494	-5.7999
-61.246	-5.9477
-61.999	-6.0956
-62.752	-6.2435
-63.504	-6.3913
-63.597	-6.5392
-64.294	-6.6871
-65.116	-6.8350
-65.938	-6.9828
-66.760	-7.1307
-67.582	-7.2786
-68.404	-7.4265
-69.227	-7.5743
-70.049	-7.7222
-70.871	-7.8701
-71.693	-8.0179
-72.515	-8.1658
-73.337	-8.3137
-74.160	-8.4616
-74.982	-8.6094
-75.804	-8.7573
-76.626	-8.9052
-77.395	-9.0531
-78.148	-9.2009
-78.901	-9.3488
-79.654	-9.4967
-80.407	-9.6445
-81.231	-9.7924
-82.087	-9.9403
-82.942	-10.088
-83.798	-10.236
-84.653	-10.384
-85.509	-10.532
-86.364	-10.680
-87.220	-10.828
-88.170	-10.975
-89.206	-11.123
-90.242	-11.271
-91.278	-11.419
-92.314	-11.567
-93.350	-11.715
-94.386	-11.863
-95.422	-12.011
-96.457	-12.159
-97.493	-12.307
-98.529	-12.455
-99.565	-12.603
-100.55	-12.751
-101.46	-12.899
-102.37	-13.047
-103.28	-13.195
-104.19	-13.343
-105.10	-13.491
-106.15	-13.639
-107.25	-13.787
-108.34	-13.935
-109.44	-14.083
-110.54	-14.229
-111.64	-14.376
-112.73	-14.524
-113.83	-14.671
-114.93	-14.819
-116.02	-14.967
-117.12	-15.114
-118.22	-15.262
-119.31	-15.410
-120.41	-15.557
-121.51	-15.705
-122.68	-15.853
-124.04	-16.000
-125.39	-16.148
-126.75	-16.296
-128.11	-16.444
-129.47	-16.591
-131.04	-16.739
-132.72	-16.887
-134.40	-17.035
-136.09	-17.182
-137.77	-17.330
-139.45	-17.478
-141.47	-17.626
-142.02	-17.773
-143.04	-17.921
-144.22	-18.069
-145.41	-18.217
-147.34	-18.364
-149.34	-18.512
-151.13	-18.660
-152.61	-18.808
-154.10	-18.956
-155.58	-19.103
-157.07	-19.251
-158.55	-19.399
-160.04	-19.547
-161.52	-19.694
-164.05	-19.842
-167.60	-19.990
-173.38	-20.138
-179.65	-20.285
-185.93	-20.433
-192.20	-20.581
-200.96	-20.729
-211.45	-20.876
-221.94	-21.024
-237.94	-21.172
-255.07	-21.319
-269.66	-21.466
-284.25	-21.613
-298.84	-21.760
-313.42	-21.908
-333.11	-22.055
-372.53	-22.202
-432.52	-22.346
-511.82	-22.457
-382.58	-22.298
-326.62	-22.235