File: text_data/C7 - 10.txt
Load (N)	Extension (mm)

18.445
18.455	1.8918
18.464	1.8917
18.473	1.8917
18.483	1.8916
18.492	1.8916
18.502	1.8915
18.511	1.8915
18.520	1.8915
18.530	1.8914
18.539	1.8914
18.549	1.8913
18.558	1.8913
18.567	1.8912
18.577	1.8912
18.586	1.8912
18.595	1.8911
18.605	1.8911
18.614	1.8910
17.713	1.8781
16.737	1.8337
15.501	1.7867
15.060	1.7385
14.618	1.6864
14.177	1.6342
13.736	1.5814
13.336	1.5267
12.980	1.4719
12.624	1.4171
12.268	1.3623
11.911	1.3075
11.555	1.2522
11.199	1.1968
10.843	1.1414
10.568	1.0865
10.308	1.0317
10.047	0.97683
9.7871	0.92199
9.5267	0.86715
9.2664	0.81231
9.0060	0.75748
8.7456	0.70264
8.4853	0.64774
8.2249	0.59275
7.9366	0.53777
7.6457	0.48278
7.3548	0.42780
7.0639	0.37282
6.7731	0.31783
6.4822	0.26285
6.1913	0.20786
5.9004	0.15288
5.6095	0.097897
5.3186	0.042913
5.0277	-0.0082449
4.7368	-0.035205
6.0601	-0.034543
6.1933	-0.028363
6.1711	-0.028764
6.1489	-0.029164
6.1268	-0.029565
6.1046	-0.031902
5.7076	-0.055651
5.0349	-0.10307
4.3621	-0.15296
3.8985	-0.20285
3.6284	-0.25586
3.3582	-0.30988
3.0881	-0.36390
2.8180	-0.41792
2.5478	-0.47194
2.2777	-0.52619
2.0075	-0.58077
1.7374	-0.63535
1.4673	-0.68993
1.1971	-0.74452
0.92699	-0.79910
0.65685	-0.85368
0.38671	-0.90826
0.11657	-0.96284
-0.15356	-1.0174
-0.42370	-1.0720
-0.69384	-1.1266
-0.96398	-1.1812
-1.2341	-1.2358
-1.5043	-1.2903
-1.7744	-1.3449
-2.0445	-1.3995
-2.3147	-1.4541
-2.5848	-1.5087
-2.8549	-1.5632
-3.1251	-1.6178
-3.3952	-1.6724
-3.6654	-1.7270
-3.9355	-1.7816
-4.2056	-1.8361
-4.4758	-1.8907
-4.7459	-1.9453
-5.0160	-1.9999
-5.2862	-2.0545
-5.5563	-2.1091
-5.8265	-2.1637
-6.0966	-2.2183
-6.3667	-2.2728
-6.6369	-2.3274
-6.9070	-2.3820
-7.1771	-2.4366
-7.4473	-2.4912
-7.7174	-2.5458
-7.9876	-2.6004
-8.2577	-2.6549
-8.5278	-2.7094
-8.7980	-2.7639
-9.0681	-2.8184
-9.3382	-2.8729
-9.6084	-2.9274
-9.8785	-2.9819
-10.149	-3.0364
-10.419	-3.0909
-10.689	-3.1454
-10.959	-3.1999
-11.229	-3.2544
-11.499	-3.3089
-11.769	-3.3634
-12.040	-3.4179
-12.310	-3.4724
-12.580	-3.5269
-12.850	-3.5814
-13.120	-3.6359
-13.390	-3.6904
-13.660	-3.7449
-13.931	-3.7994
-14.201	-3.8539
-14.471	-3.9083
-14.741	-3.9628
-15.011	-4.0173
-15.281	-4.0718
-15.551	-4.1263
-15.822	-4.1808
-16.092	-4.2353
-16.362	-4.2898
-16.632	-4.3443
-16.902	-4.3988
-17.172	-4.4533
-17.442	-4.5078
-17.713	-4.5623
-17.983	-4.6168
-18.253	-4.6713
-18.523	-4.7258
-18.793	-4.7803
-19.063	-4.8348
-19.333	-4.8893
-19.603	-4.9438
-19.874	-4.9983
-20.144	-5.0528
-20.414	-5.1073
-20.684	-5.1618
-20.954	-5.2163
-21.224	-5.2708
-21.494	-5.3253
-21.765	-5.3798
-22.035	-5.4343
-22.305	-5.4889
-22.575	-5.5435
-22.845	-5.5980
-23.115	-5.6526
-23.385	-5.7071
-23.656	-5.7617
-23.926	-5.8163
-24.196	-5.8708
-24.466	-5.9254
-24.736	-5.9800
-25.006	-6.0345
-25.276	-6.0891
-25.546	-6.1436
-25.817	-6.1982
-26.087	-6.2528
-26.357	-6.3073
-26.627	-6.3619
-26.897	-6.4165
-27.167	-6.4710
-27.437	-6.5256
-27.708	-6.5802
-27.978	-6.6347
-28.248	-6.6893
-28.518	-6.7438
-28.788	-6.7984
-29.058	-6.8530
-29.328	-6.9075
-29.599	-6.9621
-29.869	-7.0167
-30.139	-7.0712
-30.409	-7.1258
-30.679	-7.1803
-30.949	-7.2349
-31.219	-7.2895
-31.490	-7.3440
-31.760	-7.3986
-32.030	-7.4532
-32.300	-7.5077
-32.570	-7.5621
-32.840	-7.6166
-33.110	-7.6711
-33.380	-7.7256
-33.651	-7.7801
-33.921	-7.8346
-34.191	-7.8891
-34.461	-7.9435
-34.731	-7.9980
-35.001	-8.0525
-35.271	-8.1070
-35.542	-8.1615
-35.812	-8.2160
-36.082	-8.2705
-36.352	-8.3249
-36.622	-8.3794
-36.892	-8.4339
-37.162	-8.4884
-37.433	-8.5429
-37.703	-8.5974
-37.973	-8.6519
-38.243	-8.7063
-38.513	-8.7608
-38.783	-8.8153
-39.053	-8.8698
-39.324	-8.9243
-39.594	-8.9788
-39.864	-9.0333
-40.134	-9.0877
-40.404	-9.1422
-40.674	-9.1967
-40.944	-9.2512
-41.214	-9.3057
-41.485	-9.3602
-41.755	-9.4146
-42.025	-9.4691
-42.295	-9.5236
-42.565	-9.5781
-42.826	-9.6326
-43.085	-9.6871
-43.343	-9.7416
-43.602	-9.7960
-43.861	-9.8505
-44.120	-9.9050
-44.378	-9.9595
-44.637	-10.003
-44.794	-10.026
-41.286	-10.009
-40.865	-10.005
-41.062	-10.004
-41.259	-10.004
-41.455	-10.003
-41.652	-9.9944
-41.232	-9.9542
-40.288	-9.9027
-39.344	-9.8512
-38.400	-9.7998
-37.944	-9.7483
-37.679	-9.6968
-37.414	-9.6453
-37.148	-9.5939
-36.883	-9.5420
-36.618	-9.4875
-36.352	-9.4330
-36.087	-9.3785
-35.822	-9.3240
-35.556	-9.2695
-35.291	-9.2150
-35.026	-9.1605
-34.761	-9.1060
-34.495	-9.0515
-34.230	-8.9970
-33.965	-8.9425
-33.699	-8.8880
-33.434	-8.8335
-33.169	-8.7790
-32.903	-8.7245
-32.638	-8.6700
-32.373	-8.6155
-32.107	-8.5610
-31.842	-8.5065
-31.577	-8.4520
-31.311	-8.3975
-31.046	-8.3430
-30.781	-8.2885
-30.515	-8.2340
-30.250	-8.1795
-29.985	-8.1250
-29.719	-8.0705
-29.454	-8.0160
-29.189	-7.9615
-28.924	-7.9070
-28.658	-7.8525
-28.393	-7.7980
-28.128	-7.7435
-27.862	-7.6890
-27.597	-7.6345
-27.332	-7.5800
-27.066	-7.5255
-26.801	-7.4710
-26.536	-7.4165
-26.270	-7.3620
-26.005	-7.3075
-25.740	-7.2530
-25.474	-7.1985
-25.209	-7.1440
-24.944	-7.0895
-24.678	-7.0350
-24.413	-6.9805
-24.148	-6.9260
-23.882	-6.8715
-23.617	-6.8170
-23.352	-6.7625
-23.087	-6.7080
-22.821	-6.6535
-22.556	-6.5990
-22.291	-6.5445
-22.025	-6.4900
-21.760	-6.4355
-21.495	-6.3810
-21.229	-6.3265
-20.964	-6.2720
-20.699	-6.2175
-20.433	-6.1630
-20.168	-6.1085
-19.903	-6.0540
-19.637	-5.9995
-19.372	-5.9450
-19.107	-5.8905
-18.841	-5.8360
-18.576	-5.7815
-18.311	-5.7270
-18.045	-5.6725
-17.780	-5.6180
-17.515	-5.5635
-17.250	-5.5090
-16.984	-5.4545
-16.719	-5.4000
-16.454	-5.3455
-16.188	-5.2910
-15.923	-5.2365
-15.658	-5.1820
-15.392	-5.1275
-15.127	-5.0730
-14.862	-5.0185
-14.596	-4.9640
-14.331	-4.9095
-14.066	-4.8550
-13.800	-4.8005
-13.535	-4.7460
-13.270	-4.6915
-13.004	-4.6370
-12.739	-4.5825
-12.474	-4.5280
-12.208	-4.4735
-11.943	-4.4190
-11.678	-4.3645
-11.413	-4.3100
-11.147	-4.2555
-10.882	-4.2010
-10.617	-4.1465
-10.351	-4.0920
-10.086	-4.0375
-9.8206	-3.9830
-9.5553	-3.9285
-9.2900	-3.8740
-9.0247	-3.8195
-8.7594	-3.7650
-8.4940	-3.7105
-8.2287	-3.6560
-7.9634	-3.6015
-7.6981	-3.5470
-7.4328	-3.4925
-7.1674	-3.4380
-6.9021	-3.3835
-6.6368	-3.3290
-6.3715	-3.2745
-6.1062	-3.2200
-5.8409	-3.1655
-5.5755	-3.1110
-5.3102	-3.0565
-5.0449	-3.0020
-4.7796	-2.9475
-4.5143	-2.8930
-4.2489	-2.8385
-3.9836	-2.7840
-3.7183	-2.7295
-3.4530	-2.6750
-3.1877	-2.6205
-2.9224	-2.5660
-2.6570	-2.5115
-2.3917	-2.4570
-2.1264	-2.4025
-1.8611	-2.3480
-1.5958	-2.2935
-1.3304	-2.2390
-1.0651	-2.1845
-0.79981	-2.1300
-0.53449	-2.0755
-0.26918	-2.0210
-0.0038584	-1.9665
0.26146	-1.9120
0.52678	-1.8575
0.79210	-1.8030
1.0574	-1.7485
1.3227	-1.6940
1.5880	-1.6395
1.8534	-1.5850
2.1187	-1.5305
2.3840	-1.4760
2.6493	-1.4215
2.9146	-1.3670
3.1800	-1.3125
3.4453	-1.2580
3.7106	-1.2025
3.9759	-1.1446
4.2412	-1.0893
4.5065	-1.0348
4.7719	-0.98035
5.0372	-0.92587
5.3025	-0.87139
5.5678	-0.81691
5.8331	-0.76243
6.0985	-0.70795
6.3638	-0.65347
6.6291	-0.59899
6.8944	-0.54451
7.1597	-0.49003
7.4250	-0.43555
7.6904	-0.38107
7.9557	-0.32659
8.2210	-0.27211
8.4863	-0.21763
8.7517	-0.16315
9.0172	-0.10867
9.2828	-0.054188
9.5483	0.00029184
9.8138	0.054772
10.079	0.10925
10.345	0.16373
10.610	0.21821
10.876	0.27269
11.142	0.32717
11.407	0.38165
11.673	0.43613
11.938	0.49061
12.204	0.54509
12.469	0.59957
12.735	0.65405
13.000	0.70853
13.266	0.76301
13.531	0.81749
13.836	0.87197
14.146	0.92645
14.456	0.98093
14.766	1.0354
15.077	1.0899
15.387	1.1444
15.697	1.1989
16.007	1.2533
16.318	1.3078
16.628	1.3623
16.938	1.4168
17.248	1.4713
17.559	1.5257
17.869	1.5802
18.179	1.6347
18.489	1.6892
18.805	1.7437
19.215	1.7981
19.626	1.8526
20.036	1.9071
20.447	1.9616
20.857	2.0161
21.268	2.0705
21.679	2.1250
22.089	2.1795
22.500	2.2340
22.910	2.2885
23.321	2.3429
23.605	2.3978
23.802	2.4529
23.999	2.5079
24.196	2.5627
24.393	2.6172
24.590	2.6717
24.787	2.7262
24.984	2.7807
25.181	2.8352
25.378	2.8897
25.574	2.9443
25.771	2.9988
25.968	3.0533
26.165	3.1078
26.362	3.1623
26.559	3.2168
26.756	3.2713
26.955	3.3258
27.281	3.3803
27.608	3.4348
27.935	3.4893
28.262	3.5438
28.588	3.5983
28.915	3.6528
29.242	3.7073
29.569	3.7618
29.895	3.8163
30.222	3.8708
30.549	3.9253
30.876	3.9798
31.202	4.0343
31.563	4.0888
32.021	4.1434
32.478	4.1979
32.935	4.2524
33.393	4.3069
33.850	4.3614
34.308	4.4159
34.765	4.4704
35.223	4.5249
35.680	4.5794
36.138	4.6339
36.456	4.6884
36.666	4.7429
36.876	4.7974
37.085	4.8519
37.295	4.9064
37.505	4.9609
37.715	5.0154
37.925	5.0699
38.134	5.1244
38.344	5.1789
38.554	5.2334
38.764	5.2880
38.974	5.3425
39.183	5.3970
39.393	5.4515
39.603	5.5060
39.813	5.5605
40.023	5.6150
40.233	5.6695
40.442	5.7240
40.652	5.7785
40.862	5.8330
41.072	5.8875
41.360	5.9420
41.693	5.9965
42.026	6.0510
42.359	6.1055
42.692	6.1600
43.025	6.2146
43.358	6.2691
43.691	6.3236
44.206	6.3781
44.722	6.4326
45.239	6.4871
45.755	6.5417
46.271	6.5962
46.788	6.6507
47.304	6.7052
47.820	6.7597
48.337	6.8142
48.835	6.8688
49.065	6.9233
49.295	6.9778
49.525	7.0323
49.755	7.0868
49.984	7.1413
50.214	7.1959
50.444	7.2504
50.674	7.3049
50.904	7.3594
51.134	7.4139
51.364	7.4684
51.593	7.5229
51.823	7.5774
52.053	7.6319
52.283	7.6864
52.513	7.7408
52.743	7.7953
52.973	7.8498
53.202	7.9043
53.432	7.9588
53.662	8.0132
53.892	8.0677
54.122	8.1222
54.352	8.1767
54.582	8.2312
54.811	8.2857
55.167	8.3401
55.795	8.3946
56.423	8.4491
57.050	8.5036
57.678	8.5581
58.305	8.6125
58.933	8.6670
59.561	8.7215
59.879	8.7760
60.050	8.8305
60.220	8.8850
60.390	8.9394
60.561	8.9939
60.731	9.0484
60.901	9.1029
61.072	9.1574
61.242	9.2118
61.413	9.2663
61.583	9.3208
61.753	9.3753
61.924	9.4298
62.094	9.4843
62.264	9.5387
62.435	9.5932
62.605	9.6477
62.775	9.7022
62.946	9.7567
63.116	9.8111
63.286	9.8654
63.457	9.9142
63.627	9.9631
63.705	10.025
62.338	10.016
58.930	9.9359
56.926	9.8811
56.400	9.8361
56.049	9.7845
55.699	9.7329
55.348	9.6810
54.998	9.6265
54.647	9.5720
54.297	9.5176
53.946	9.4631
53.596	9.4086
53.245	9.3541
52.895	9.2996
52.544	9.2451
52.194	9.1906
51.843	9.1361
51.493	9.0816
51.143	9.0272
50.792	8.9727
50.442	8.9182
50.091	8.8637
49.741	8.8092
49.390	8.7547
49.040	8.7002
48.689	8.6457
48.339	8.5912
47.988	8.5368
47.638	8.4823
47.287	8.4278
46.937	8.3733
46.587	8.3188
46.236	8.2643
45.886	8.2098
45.535	8.1553
45.185	8.1008
44.834	8.0464
44.484	7.9919
44.133	7.9374
43.783	7.8829
43.432	7.8284
43.082	7.7739
42.731	7.7194
42.381	7.6649
42.030	7.6104
41.680	7.5560
41.330	7.5015
41.021	7.4470
40.740	7.3925
40.459	7.3380
40.178	7.2835
39.897	7.2290
39.616	7.1745
39.335	7.1200
39.054	7.0656
38.773	7.0111
38.492	6.9566
38.210	6.9021
37.929	6.8476
37.648	6.7931
37.367	6.7386
37.086	6.6841
36.805	6.6296
36.524	6.5752
36.243	6.5207
35.962	6.4662
35.681	6.4117
35.399	6.3572
35.118	6.3027
34.837	6.2482
34.556	6.1937
34.275	6.1392
33.994	6.0848
33.713	6.0303
33.432	5.9758
33.151	5.9213
32.870	5.8668
32.589	5.8123
32.307	5.7578
32.026	5.7033
31.745	5.6488
31.464	5.5943
31.183	5.5399
30.902	5.4854
30.621	5.4309
30.340	5.3764
30.059	5.3219
29.778	5.2674
29.496	5.2129
29.215	5.1584
28.934	5.1039
28.653	5.0495
28.372	4.9950
28.091	4.9405
27.810	4.8860
27.529	4.8315
27.248	4.7774
26.967	4.7233
26.685	4.6693
26.404	4.6153
26.123	4.5613
25.842	4.5073
25.561	4.4533
25.280	4.3993
24.999	4.3453
24.718	4.2910
24.437	4.2365
24.156	4.1819
23.875	4.1274
23.593	4.0729
23.312	4.0184
23.031	3.9638
22.750	3.9093
22.469	3.8548
22.188	3.8003
21.907	3.7457
21.626	3.6912
21.345	3.6367
21.064	3.5821
20.782	3.5276
20.501	3.4731
20.220	3.4186
19.939	3.3640
19.658	3.3095
19.377	3.2550
19.096	3.2004
18.815	3.1459
18.534	3.0914
18.253	3.0369
17.971	2.9823
17.690	2.9278
17.409	2.8733
17.128	2.8187
16.847	2.7642
16.566	2.7097
16.285	2.6552
16.004	2.6006
15.723	2.5461
15.442	2.4916
15.161	2.4370
14.879	2.3825
14.598	2.3280
14.317	2.2735
14.036	2.2189
13.755	2.1644
13.474	2.1099
13.193	2.0553
12.912	2.0008
12.631	1.9463
12.350	1.8918
12.068	1.8372
11.787	1.7827
11.506	1.7282
11.225	1.6736
10.944	1.6191
10.663	1.5646
10.382	1.5101
10.101	1.4555
9.8197	1.4010
9.5386	1.3465
9.2575	1.2920
8.9764	1.2374
8.6953	1.1829
8.4142	1.1284
8.1331	1.0738
7.8520	1.0193
7.5709	0.96478
7.2898	0.91025
7.0087	0.85573
6.7276	0.80120
6.4465	0.74667
6.1654	0.69214
5.8843	0.63761
5.6032	0.58308
5.3221	0.52856
5.0411	0.47403
4.7600	0.41950
4.4789	0.36497
4.1978	0.31044
3.9167	0.25591
3.6356	0.20139
3.3545	0.14689
3.0734	0.092634
2.7988	0.038377
2.5287	-0.015880
2.2585	-0.070137
1.9884	-0.12439
1.7183	-0.17865
1.4482	-0.23291
1.1781	-0.28716
0.90796	-0.34142
0.63784	-0.39572
0.36772	-0.45022
0.097607	-0.50472
-0.17251	-0.55921
-0.44263	-0.61371
-0.71275	-0.66821
-0.98286	-0.72271
-1.2530	-0.77720
-1.5231	-0.83170
-1.7932	-0.88620
-2.0633	-0.94069
-2.3335	-0.99519
-2.6036	-1.0497
-2.8737	-1.1042
-3.1438	-1.1587
-3.4139	-1.2132
-3.6840	-1.2677
-3.9542	-1.3222
-4.2243	-1.3767
-4.4944	-1.4312
-4.7645	-1.4857
-5.0346	-1.5402
-5.3047	-1.5947
-5.5749	-1.6492
-5.8450	-1.7037
-6.1151	-1.7582
-6.3852	-1.8126
-6.6553	-1.8671
-6.9255	-1.9216
-7.1956	-1.9761
-7.4657	-2.0306
-7.7358	-2.0851
-8.0059	-2.1396
-8.2760	-2.1941
-8.5462	-2.2486
-8.8163	-2.3031
-9.0864	-2.3576
-9.3565	-2.4121
-9.6266	-2.4666
-9.8968	-2.5211
-10.167	-2.5756
-10.437	-2.6301
-10.707	-2.6846
-10.977	-2.7391
-11.247	-2.7936
-11.517	-2.8481
-11.788	-2.9026
-12.058	-2.9571
-12.328	-3.0116
-12.598	-3.0661
-12.868	-3.1206
-13.138	-3.1751
-13.408	-3.2296
-13.678	-3.2841
-13.949	-3.3386
-14.219	-3.3931
-14.489	-3.4476
-14.759	-3.5021
-15.029	-3.5566
-15.299	-3.6111
-15.569	-3.6656
-15.839	-3.7201
-16.109	-3.7745
-16.380	-3.8290
-16.650	-3.8835
-16.920	-3.9380
-17.190	-3.9925
-17.460	-4.0470
-17.730	-4.1015
-18.000	-4.1560
-18.270	-4.2105
-18.541	-4.2650
-18.811	-4.3195
-19.081	-4.3740
-19.351	-4.4285
-19.621	-4.4830
-19.891	-4.5375
-20.170	-4.5920
-20.452	-4.6465
-20.733	-4.7010
-21.015	-4.7555
-21.297	-4.8100
-21.578	-4.8645
-21.860	-4.9190
-22.141	-4.9735
-22.423	-5.0280
-22.705	-5.0825
-22.986	-5.1370
-23.268	-5.1915
-23.549	-5.2460
-23.831	-5.3005
-24.113	-5.3550
-24.394	-5.4096
-24.676	-5.4642
-24.957	-5.5188
-25.239	-5.5734
-25.521	-5.6281
-25.802	-5.6827
-26.084	-5.7373
-26.365	-5.7919
-26.647	-5.8465
-26.929	-5.9011
-27.210	-5.9557
-27.492	-6.0104
-27.773	-6.0650
-28.055	-6.1196
-28.337	-6.1742
-28.618	-6.2288
-28.900	-6.2834
-29.181	-6.3380
-29.463	-6.3926
-29.745	-6.4473
-30.026	-6.5019
-30.308	-6.5565
-30.590	-6.6111
-30.871	-6.6657
-31.153	-6.7203
-31.434	-6.7749
-31.716	-6.8295
-31.998	-6.8842
-32.279	-6.9388
-32.561	-6.9934
-32.842	-7.0479
-33.124	-7.1024
-33.406	-7.1569
-33.687	-7.2114
-33.969	-7.2659
-34.250	-7.3204
-34.532	-7.3749
-34.814	-7.4293
-35.095	-7.4838
-35.377	-7.5383
-35.658	-7.5928
-35.940	-7.6473
-36.222	-7.7018
-36.503	-7.7563
-36.788	-7.8108
-37.090	-7.8653
-37.391	-7.9198
-37.692	-7.9743
-37.994	-8.0287
-38.295	-8.0832
-38.596	-8.1377
-38.898	-8.1922
-39.199	-8.2467
-39.500	-8.3012
-39.802	-8.3557
-40.103	-8.4102
-40.405	-8.4647
-40.706	-8.5192
-41.007	-8.5737
-41.309	-8.6281
-41.610	-8.6826
-41.911	-8.7371
-42.213	-8.7916
-42.514	-8.8461
-42.816	-8.9006
-43.117	-8.9551
-43.418	-9.0096
-43.720	-9.0641
-44.021	-9.1186
-44.322	-9.1730
-44.624	-9.2275
-44.925	-9.2820
-45.226	-9.3365
-45.528	-9.3910
-45.829	-9.4455
-46.131	-9.4999
-46.432	-9.5543
-46.733	-9.6086
-47.035	-9.6630
-47.336	-9.7173
-47.637	-9.7717
-47.939	-9.8260
-48.240	-9.8804
-48.541	-9.9347
-48.843	-9.9891
-49.144	-10.027
-41.993	-9.9752
-40.657	-9.9071
-39.091	-9.8599
-38.770	-9.8127
-38.450	-9.7634
-38.129	-9.7098
-37.809	-9.6562
-37.488	-9.6026
-37.328	-9.5758