File: text_data/C7.txt
Load (N)	Extension (mm)

17.944	2.0081
17.954	2.0081
17.963	2.0081
17.973	2.0081
17.982	2.0081
17.992	2.0081
16.834	1.9643
14.956	1.8263
13.705	1.6780
12.884	1.5255
12.062	1.3708
11.241	1.2159
10.420	1.0619
9.5984	0.90793
8.7771	0.75395
7.9557	0.59997
7.1344	0.44600
6.3130	0.29341
5.4917	0.14078
4.6703	-0.013360
6.2138	-0.018288
6.4364	-0.033439
5.4775	-0.038273
4.1632	-0.17186
2.8490	-0.31839
2.0326	-0.47004
1.2694	-0.62296
0.50627	-0.77588
-0.25689	-0.92880
-1.0200	-1.0817
-1.7832	-1.2346
-2.5464	-1.3876
-3.3095	-1.5405
-4.0727	-1.6934
-4.8358	-1.8463
-5.5990	-1.9993
-6.3622	-2.1522
-7.1253	-2.3051
-7.8885	-2.4578
-8.6516	-2.6103
-9.4148	-2.7629
-10.178	-2.9154
-10.941	-3.0679
-11.704	-3.2205
-12.467	-3.3730
-13.231	-3.5256
-13.994	-3.6781
-14.757	-3.8306
-15.520	-3.9832
-16.283	-4.1357
-17.046	-4.2882
-17.810	-4.4398
-18.573	-4.5914
-19.336	-4.7441
-20.099	-4.8968
-20.862	-5.0496
-21.625	-5.2023
-22.388	-5.3551
-23.152	-5.5078
-23.915	-5.6605
-24.678	-5.8133
-25.441	-5.9660
-26.204	-6.1188
-26.967	-6.2715
-27.731	-6.4242
-28.494	-6.5770
-29.257	-6.7297
-30.020	-6.8824
-30.783	-7.0352
-31.546	-7.1879
-32.310	-7.3407
-33.073	-7.4934
-33.836	-7.6461
-34.599	-7.7989
-35.362	-7.9516
-36.125	-8.1042
-36.889	-8.2569
-37.652	-8.4096
-38.415	-8.5623
-39.178	-8.7150
-39.941	-8.8677
-40.704	-9.0203
-41.242	-9.1730
-41.753	-9.3257
-42.471	-9.4784
-43.276	-9.6311
-44.081	-9.7838
-44.885	-9.9364
-45.690	-10.089
-46.495	-10.242
-47.299	-10.394
-48.104	-10.547
-48.909	-10.701
-49.713	-10.855
-50.518	-11.008
-51.323	-11.161
-52.127	-11.313
-52.932	-11.466
-53.737	-11.618
-54.541	-11.771
-55.346	-11.924
-56.151	-12.076
-56.955	-12.229
-57.760	-12.382
-58.565	-12.534
-59.369	-12.687
-60.174	-12.839
-60.979	-12.992
-61.783	-13.145
-62.588	-13.297
-63.393	-13.450
-64.197	-13.603
-65.002	-13.755
-65.925	-13.908
-66.878	-14.060
-67.832	-14.213
-68.786	-14.366
-69.739	-14.518
-70.693	-14.671
-71.646	-14.824
-72.600	-14.976
-73.553	-15.129
-74.507	-15.282
-75.461	-15.434
-76.414	-15.587
-77.368	-15.740
-78.321	-15.892
-79.275	-16.045
-80.229	-16.198
-81.182	-16.351
-82.136	-16.503
-83.089	-16.656
-84.043	-16.809
-85.001	-16.961
-86.035	-17.114
-87.068	-17.267
-88.102	-17.419
-89.135	-17.572
-90.169	-17.725
-91.202	-17.877
-92.236	-18.030
-93.315	-18.183
-94.456	-18.335
-95.596	-18.488
-96.737	-18.641
-97.878	-18.793
-99.019	-18.948
-100.16	-19.101
-101.30	-19.254
-102.44	-19.406
-103.58	-19.559
-104.72	-19.712
-105.86	-19.864
-107.07	-20.017
-108.35	-20.170
-109.63	-20.322
-110.91	-20.475
-112.20	-20.628
-113.48	-20.780
-114.76	-20.933
-116.04	-21.086
-117.33	-21.238
-118.61	-21.391
-119.89	-21.544
-121.17	-21.696
-122.46	-21.849
-124.01	-22.002
-126.06	-22.154
-127.82	-22.307
-129.59	-22.460
-131.35	-22.612
-133.12	-22.765
-134.88	-22.917
-136.65	-23.070
-138.41	-23.222
-140.25	-23.375
-143.44	-23.527
-152.54	-23.680
-166.57	-23.833
-183.48	-23.985
-206.08	-24.137
-236.81	-24.288
-279.42	-24.439
-329.13	-24.590
-389.16	-24.742
-454.63	-24.891
-516.33	-25.026
-518.98	-25.044
-512.97	-25.043
-463.11	-24.961
-350.33	-24.815
-276.46	-24.669
-241.23	-24.523
-206.00	-24.374
-170.78	-24.221
-135.55	-24.068
-101.92	-23.915
-101.15	-23.763
-100.38	-23.610
-99.607	-23.457
-98.837	-23.305
-98.067	-23.152
-97.298	-22.999
-96.528	-22.846
-95.758	-22.694
-94.989	-22.541
-94.219	-22.388
-93.449	-22.235
-92.680	-22.083
-91.910	-21.930
-91.140	-21.777
-90.371	-21.625
-89.601	-21.472
-88.831	-21.319
-88.062	-21.166
-87.292	-21.014
-86.522	-20.861
-85.753	-20.708
-84.983	-20.556
-84.213	-20.403
-83.444	-20.250
-82.674	-20.097
-81.904	-19.944
-81.116	-19.791
-80.316	-19.637
-79.515	-19.484
-78.714	-19.331
-77.913	-19.178
-77.112	-19.026
-76.312	-18.873
-75.511	-18.720
-74.710	-18.567
-73.909	-18.415
-73.109	-18.262
-72.308	-18.109
-69.678	-17.957
-68.438	-17.804
-68.029	-17.651
-67.620	-17.498
-67.212	-17.346
-66.803	-17.193
-66.395	-17.040
-65.986	-16.888
-65.577	-16.735
-65.169	-16.582
-64.235	-16.430
-63.137	-16.277
-62.041	-16.124
-60.986	-15.971
-59.931	-15.819
-59.264	-15.666
-58.879	-15.513
-58.494	-15.361
-58.109	-15.208
-57.724	-15.055
-57.340	-14.902
-56.955	-14.750
-56.570	-14.597
-56.185	-14.444
-55.767	-14.292
-54.337	-14.139
-53.006	-13.986
-52.381	-13.833
-51.756	-13.681
-51.132	-13.528
-50.507	-13.375
-49.882	-13.223
-49.258	-13.070
-48.633	-12.917
-48.009	-12.764
-47.384	-12.611
-46.759	-12.458
-46.135	-12.306
-45.272	-12.153
-44.395	-12.001
-43.517	-11.848
-42.734	-11.696
-42.098	-11.543
-41.463	-11.391
-40.827	-11.238
-40.192	-11.086
-39.556	-10.933
-38.921	-10.780
-38.285	-10.628
-37.650	-10.475
-37.014	-10.322
-36.361	-10.169
-35.705	-10.017
-35.049	-9.8638
-34.393	-9.7110
-33.737	-9.5582
-33.081	-9.4054
-32.425	-9.2526
-31.769	-9.0998
-31.112	-8.9471
-30.456	-8.7943
-29.800	-8.6415
-29.144	-8.4887
-26.416	-8.3359
-25.812	-8.1831
-25.208	-8.0304
-24.604	-7.8776
-24.000	-7.7248
-23.396	-7.5712
-22.793	-7.4136
-22.189	-7.2619
-21.585	-7.1102
-20.981	-6.9585
-20.377	-6.8067
-19.773	-6.6550
-18.831	-6.5033
-17.304	-6.3516
-16.697	-6.1992
-16.090	-6.0464
-15.483	-5.8936
-14.876	-5.7409
-14.269	-5.5881
-13.662	-5.4353
-13.054	-5.2825
-12.447	-5.1298
-11.840	-4.9770
-11.233	-4.8242
-10.398	-4.6714
-9.0074	-4.5186
-7.6992	-4.3659
-7.0746	-4.2131
-6.4500	-4.0603
-5.8255	-3.9075
-5.2009	-3.7548
-4.5764	-3.6020
-3.9518	-3.4492
-3.3272	-3.2964
-2.7027	-3.1437
-2.0781	-2.9909
-1.4536	-2.8381
0.52365	-2.6853
1.7200	-2.5326
2.2449	-2.3781
2.7697	-2.2255
3.2946	-2.0730
3.8195	-1.9204
4.3444	-1.7679
4.8693	-1.6153
5.3941	-1.4628
5.9190	-1.3102
6.4439	-1.1577
6.9688	-1.0052
7.7116	-0.85261
9.3620	-0.70007
10.088	-0.54746
10.624	-0.39471
11.161	-0.24196
11.697	-0.089201
12.233	0.063553
12.770	0.21631
13.306	0.36906
13.842	0.52182
14.379	0.67457
14.915	0.82732
15.451	0.98008
16.224	1.1328
17.127	1.2856
17.990	1.4384
18.681	1.5911
19.371	1.7439
20.061	1.8967
20.752	2.0494
21.442	2.2022
22.133	2.3550
22.823	2.5077
23.514	2.6605
24.201	2.8133
24.875	2.9661
25.550	3.1188
26.224	3.2716
26.898	3.4244
27.573	3.5771
28.247	3.7299
28.921	3.8827
29.595	4.0354
30.270	4.1882
30.944	4.3410
31.987	4.4938
33.995	4.6465
34.784	4.7993
35.457	4.9521
36.129	5.1048
36.801	5.2576
37.474	5.4104
38.146	5.5624
38.818	5.7135
39.491	5.8662
40.163	6.0188
40.835	6.1714
41.681	6.3240
42.986	6.4767
44.291	6.6293
45.245	6.7819
45.906	6.9345
46.567	7.0872
47.229	7.2398
47.890	7.3924
48.551	7.5450
49.213	7.6977
49.874	7.8503
50.535	8.0029
51.197	8.1556
52.533	8.3082
54.125	8.4608
54.966	8.6134
55.638	8.7661
56.310	8.9188
56.983	9.0716
57.655	9.2243
58.327	9.3771
58.999	9.5299
59.671	9.6827
60.344	9.8354
61.016	9.9882
62.196	10.130
63.570	10.285
64.944	10.455
66.188	10.603
66.824	10.751
67.460	10.901
68.096	11.054
68.732	11.207
69.367	11.359
70.003	11.512
70.639	11.664
71.275	11.817
72.410	11.969
73.739	12.122
75.069	12.275
75.932	12.427
76.613	12.580
77.294	12.737
77.976	12.895
78.657	13.047
79.338	13.200
80.020	13.353
80.701	13.505
81.382	13.658
82.357	13.811
84.745	13.963
85.756	14.116
86.438	14.269
87.121	14.421
87.803	14.574
88.486	14.727
89.169	14.879
89.851	15.032
90.534	15.185
91.216	15.337
91.899	15.490
92.582	15.643
95.762	15.795
97.216	15.948
97.886	16.101
98.556	16.253
99.225	16.406
99.895	16.559
100.57	16.711
101.24	16.864
101.91	17.017
102.58	17.169
103.24	17.322
103.91	17.475
105.24	17.627
106.88	17.780
108.46	17.933
110.04	18.085
111.62	18.238
112.62	18.391
113.38	18.543
114.13	18.696
114.89	18.849
115.65	19.001
116.40	19.150
117.16	19.301
117.92	19.454
118.68	19.606
120.68	19.759
122.70	19.912
124.72	20.065
126.75	20.217
127.81	20.370
128.28	20.523
128.76	20.675
129.23	20.828
129.70	20.981
130.17	21.134
130.64	21.286
131.12	21.439
131.59	21.592
133.06	21.744
136.45	21.897
139.83	22.050
141.49	22.203
142.05	22.355
142.61	22.508
143.17	22.661
143.73	22.813
144.29	22.966
144.85	23.119
145.41	23.271
145.97	23.424
146.52	23.577
150.26	23.729
154.83	23.882
155.90	24.034
156.50	24.187
157.11	24.340
157.71	24.492
158.32	24.645
158.93	24.797
159.53	24.950
160.14	25.103
160.74	25.255
161.35	25.408
162.81	25.561
166.90	25.713
171.00	25.866
172.57	26.019
173.46	26.171
174.36	26.324
175.26	26.477
176.15	26.629
177.05	26.782
177.95	26.935
178.85	27.087
179.74	27.240
181.49	27.392
185.92	27.545
190.35	27.698
193.92	27.850
194.82	28.003
195.72	28.156
196.62	28.308
197.52	28.461
198.42	28.614
199.32	28.766
200.22	28.919
201.11	29.072
203.23	29.224
205.67	29.377
209.86	29.530
215.21	29.682
219.95	29.835
221.20	29.988
222.45	30.140
223.70	30.293
224.95	30.446
226.20	30.599
227.46	30.752
228.71	30.905
229.96	31.058
231.69	31.211
236.24	31.363
240.78	31.516
244.71	31.669
248.61	31.821
252.02	31.974
254.97	32.127
257.92	32.279
260.87	32.432
263.82	32.584
266.76	32.737
269.71	32.889
272.66	33.041
276.91	33.194
282.04	33.346
288.93	33.499
294.23	33.651
298.41	33.804
302.58	33.956
307.00	34.109
316.00	34.261
324.80	34.414
332.46	34.566
340.12	34.719
347.77	34.872
355.43	35.024
363.09	35.177
370.74	35.330
378.40	35.482
390.27	35.635
403.36	35.787
416.45	35.939
431.99	36.090
449.95	36.242
467.92	36.394
485.88	36.546
474.38	36.548
409.04	36.397
369.45	36.258
347.89	36.119
326.33	35.967
304.77	35.814
283.21	35.661
261.65	35.509
253.77	35.356
249.93	35.203
246.09	35.050
242.25	34.898
238.41	34.745
234.57	34.592
230.73	34.440
226.89	34.287
223.05	34.134
219.21	33.982
215.37	33.829
211.53	33.676
207.69	33.523
203.85	33.371
200.01	33.218
196.18	33.065
196.36	32.913
196.75	32.760
196.27	32.607
194.89	32.454
193.51	32.302
192.13	32.149
190.75	31.996
189.37	31.844
187.99	31.691
186.61	31.538
185.23	31.385
183.85	31.233
182.47	31.080
181.09	30.927
179.71	30.775
178.33	30.622
176.95	30.469
175.57	30.317
174.19	30.164
172.81	30.011
171.43	29.858
170.05	29.706
168.67	29.553
167.29	29.400
165.91	29.247
164.53	29.094
163.15	28.941
161.77	28.788
160.40	28.635
159.31	28.482
158.23	28.328
157.15	28.175
156.06	28.022
154.98	27.870
153.90	27.717
152.81	27.564
151.73	27.411
150.65	27.258
149.56	27.105
148.48	26.952
147.40	26.800
146.31	26.647
145.23	26.494
144.15	26.342
143.06	26.189
141.98	26.037
140.90	25.885
139.81	25.732
138.73	25.579
137.64	25.427
136.56	25.274
135.48	25.121
134.39	24.969
133.31	24.816
132.23	24.663
131.18	24.511
130.22	24.358
129.26	24.205
128.30	24.053
127.33	23.900
126.37	23.747
125.41	23.595
124.45	23.442
123.49	23.289
122.52	23.136
121.56	22.984
120.60	22.831
119.64	22.678
118.68	22.526
117.71	22.373
116.75	22.220
115.79	22.068
114.83	21.915
113.87	21.762
112.90	21.610
111.94	21.457
110.98	21.303
110.02	21.149
109.06	20.997
108.09	20.845
107.13	20.693
106.17	20.541
105.21	20.388
104.25	20.235
103.28	20.082
102.32	19.930
101.36	19.777
100.40	19.624
99.496	19.471
98.587	19.319
97.677	19.166
96.768	19.013
95.859	18.860
94.950	18.708
94.041	18.555
93.131	18.402
92.222	18.249
91.313	18.097
90.404	17.944
89.495	17.791
88.586	17.638
87.676	17.486
86.767	17.333
85.858	17.180
84.949	17.028
84.040	16.875
83.130	16.722
82.221	16.569
81.312	16.417
80.403	16.264
79.494	16.111
78.585	15.958
77.675	15.806
76.766	15.653
75.857	15.500
74.948	15.347
74.039	15.195
73.129	15.042
72.220	14.889
71.311	14.737
70.402	14.584
69.493	14.431
68.583	14.278
67.674	14.126
66.765	13.973
65.856	13.820
64.947	13.667
64.038	13.515
63.128	13.362
62.219	13.209
61.310	13.057
60.410	12.905
59.521	12.756
58.632	12.603
57.742	12.450
56.853	12.297
55.964	12.144
55.075	11.992
54.186	11.839
53.296	11.686
52.407	11.533
51.518	11.380
50.629	11.228
49.740	11.075
48.850	10.922
47.961	10.769
47.072	10.616
46.183	10.464
45.293	10.311
44.404	10.158
43.515	10.005
42.626	9.8523
41.737	9.6995
40.847	9.5467
39.958	9.3939
39.069	9.2411
38.180	9.0883
37.290	8.9355
36.401	8.7827
35.512	8.6299
34.623	8.4771
33.734	8.3243
32.844	8.1715
31.955	8.0187
31.066	7.8663
30.177	7.7144
29.287	7.5625
28.398	7.4097
27.509	7.2570
26.620	7.1043
25.731	6.9516
24.841	6.7989
23.952	6.6462
23.063	6.4935
22.174	6.3408
21.285	6.1881
20.395	6.0354
19.506	5.8827
18.617	5.7299
17.728	5.5772
16.838	5.4245
15.949	5.2718
15.060	5.1191
14.171	4.9664
13.282	4.8137
12.392	4.6610
11.503	4.5083
10.614	4.3556
9.7247	4.2028
8.8355	4.0501
7.9463	3.8974
7.0570	3.7447
6.1678	3.5920
5.2786	3.4392
4.3894	3.2865
3.5002	3.1337
2.6110	2.9809
1.7217	2.8282
0.83252	2.6754
-0.056701	2.5226
-0.94592	2.3699
-1.8351	2.2171
-2.7244	2.0643
-3.6136	1.9116
-4.5028	1.7588
-5.3920	1.6060
-6.2812	1.4533
-7.1704	1.3005
-8.0597	1.1477
-8.9489	0.99495
-9.8381	0.84218
-10.727	0.68941
-11.616	0.53665
-12.500	0.38388
-13.385	0.23111
-14.270	0.078342
-15.155	-0.074470
-16.039	-0.22729
-16.924	-0.38010
-17.809	-0.53292
-18.693	-0.68573
-19.578	-0.83855
-20.463	-0.99137
-21.348	-1.1442
-22.232	-1.2970
-23.117	-1.4498
-24.002	-1.6026
-24.907	-1.7554
-25.812	-1.9083
-26.718	-2.0611
-27.623	-2.2139
-28.529	-2.3667
-29.434	-2.5195
-30.340	-2.6723
-31.245	-2.8252
-32.151	-2.9780
-33.056	-3.1308
-33.962	-3.2829
-34.867	-3.4315
-35.773	-3.5843
-36.678	-3.7371
-37.584	-3.8898
-38.489	-4.0426
-39.395	-4.1953
-40.301	-4.3481
-41.206	-4.5008
-42.112	-4.6536
-43.017	-4.8063
-43.923	-4.9591
-44.828	-5.1118
-45.734	-5.2646
-46.639	-5.4173
-47.545	-5.5701
-48.450	-5.7228
-49.356	-5.8756
-50.261	-6.0284
-51.167	-6.1811
-52.072	-6.3339
-52.978	-6.4866
-53.883	-6.6394
-54.789	-6.7921
-55.694	-6.9449
-56.600	-7.0976
-57.505	-7.2504
-58.411	-7.4031
-59.316	-7.5559
-60.222	-7.7086
-61.127	-7.8614
-62.033	-8.0142
-62.938	-8.1669
-63.844	-8.3197
-64.749	-8.4724
-64.920	-8.6252
-65.967	-8.7779
-67.161	-8.9307
-68.356	-9.0834
-69.489	-9.2362
-70.502	-9.3889
-71.515	-9.5417
-72.528	-9.6944
-73.541	-9.8472
-74.555	-10.000
-75.568	-10.153
-76.581	-10.306
-77.594	-10.458
-78.607	-10.611
-79.620	-10.764
-80.634	-10.917
-81.647	-11.070
-82.660	-11.222
-83.673	-11.375
-84.686	-11.528
-85.699	-11.681
-86.713	-11.834
-87.726	-11.986
-88.739	-12.139
-89.752	-12.292
-90.765	-12.445
-91.812	-12.598
-92.959	-12.749
-94.107	-12.901
-95.255	-13.054
-96.403	-13.206
-97.551	-13.359
-98.699	-13.512
-99.846	-13.664
-100.99	-13.817
-102.14	-13.969
-103.29	-14.122
-104.44	-14.274
-105.59	-14.427
-106.73	-14.579
-107.88	-14.732
-109.03	-14.885
-110.18	-15.037
-111.32	-15.190
-112.59	-15.343
-113.88	-15.495
-115.17	-15.648
-116.47	-15.800
-117.76	-15.953
-119.05	-16.106
-120.34	-16.258
-121.64	-16.411
-122.93	-16.564
-124.22	-16.716
-125.52	-16.869
-126.81	-17.021
-128.10	-17.174
-129.40	-17.327
-130.69	-17.479
-131.98	-17.632
-133.27	-17.785
-134.57	-17.938
-135.86	-18.090
-137.15	-18.243
-138.45	-18.396
-139.74	-18.549
-141.03	-18.702
-142.28	-18.854
-143.43	-19.007
-144.58	-19.160
-145.73	-19.313
-146.88	-19.466
-148.03	-19.619
-149.18	-19.772
-150.33	-19.924
-151.93	-20.077
-153.75	-20.230
-155.56	-20.383
-157.37	-20.536
-159.18	-20.689
-160.99	-20.841
-162.80	-20.994
-164.61	-21.147
-165.55	-21.300
-165.64	-21.452
-167.56	-21.605
-169.75	-21.758
-171.94	-21.910
-174.12	-22.063
-176.37	-22.216
-178.68	-22.368
-180.99	-22.521
-187.73	-22.673
-195.44	-22.826
-202.56	-22.979
-209.68	-23.131
-216.80	-23.284
-223.92	-23.437
-231.04	-23.589
-238.16	-23.742
-245.42	-23.894
-259.27	-24.046
-285.39	-24.198
-317.60	-24.349
-352.99	-24.501
-386.29	-24.653
-426.22	-24.802
-471.07	-24.952
-490.53	-24.979
-332.73	-24.823
-283.47	-24.759