File: text_data/C8 - 10.txt
Load (N)	Extension (mm)

1.3053	-0.057068
1.3113	-0.057068
1.3173	-0.057068
1.3233	-0.057068
1.3293	-0.057068
1.3353	-0.057068
1.3413	-0.057068
1.3473	-0.057068
1.3533	-0.057068
1.3593	-0.057068
1.3653	-0.057068
1.3713	-0.057068
1.3773	-0.057068
1.3833	-0.057068
1.3893	-0.057068
1.3953	-0.057068
1.4013	-0.054422
4.2123	-0.032747
4.8100	0.0024274
5.0317	0.021042
4.8649	0.025330
4.3309	0.025330
4.3130	0.025330
4.3385	0.025330
4.3640	0.025330
4.3895	0.025330
4.4149	0.024933
4.4404	0.014151
0.36009	-0.026045
-1.4031	-0.072314
-2.8436	-0.11685
-3.0653	-0.16372
-3.2870	-0.21452
-3.7084	-0.26533
-4.1856	-0.31613
-4.6629	-0.36693
-5.1401	-0.41896
-5.6174	-0.47182
-6.0628	-0.52468
-6.3895	-0.57754
-6.7162	-0.63040
-7.0429	-0.68326
-7.3696	-0.73612
-7.6963	-0.78898
-8.0230	-0.84183
-8.3497	-0.89469
-8.6764	-0.94755
-9.0031	-1.0004
-9.3298	-1.0533
-9.6564	-1.1061
-9.9831	-1.1590
-10.310	-1.2118
-10.637	-1.2649
-10.963	-1.3181
-11.290	-1.3712
-11.617	-1.4242
-11.943	-1.4772
-12.270	-1.5302
-12.597	-1.5832
-12.923	-1.6362
-13.250	-1.6892
-13.577	-1.7422
-13.903	-1.7949
-14.230	-1.8469
-14.557	-1.8989
-14.883	-1.9509
-15.210	-2.0036
-15.537	-2.0562
-15.864	-2.1089
-16.190	-2.1615
-16.517	-2.2141
-16.844	-2.2668
-17.170	-2.3194
-17.497	-2.3721
-17.824	-2.4247
-18.150	-2.4773
-18.477	-2.5295
-18.804	-2.5815
-19.130	-2.6335
-19.457	-2.6857
-19.784	-2.7380
-20.111	-2.7902
-20.437	-2.8425
-20.764	-2.8948
-21.091	-2.9471
-21.417	-2.9994
-21.732	-3.0517
-22.033	-3.1040
-22.334	-3.1563
-22.634	-3.2086
-22.935	-3.2609
-23.236	-3.3134
-23.537	-3.3658
-23.838	-3.4183
-24.139	-3.4707
-24.439	-3.5232
-24.740	-3.5757
-25.041	-3.6281
-25.342	-3.6806
-25.643	-3.7330
-25.944	-3.7855
-26.244	-3.8379
-26.545	-3.8904
-26.846	-3.9428
-27.147	-3.9953
-27.448	-4.0477
-27.749	-4.1002
-28.049	-4.1526
-28.350	-4.2051
-28.651	-4.2576
-28.952	-4.3100
-29.253	-4.3625
-29.554	-4.4149
-29.854	-4.4674
-30.155	-4.5198
-30.456	-4.5723
-30.757	-4.6247
-31.058	-4.6772
-31.359	-4.7296
-31.659	-4.7821
-31.960	-4.8345
-32.261	-4.8870
-32.562	-4.9394
-32.863	-4.9917
-33.164	-5.0441
-33.464	-5.0964
-33.655	-5.1488
-33.793	-5.2011
-33.931	-5.2535
-34.069	-5.3058
-34.317	-5.3582
-34.613	-5.4105
-34.908	-5.4629
-35.204	-5.5152
-35.499	-5.5676
-35.795	-5.6199
-36.090	-5.6723
-36.385	-5.7246
-36.681	-5.7770
-36.976	-5.8293
-37.272	-5.8817
-37.567	-5.9340
-37.863	-5.9864
-38.158	-6.0387
-38.454	-6.0911
-38.749	-6.1434
-39.045	-6.1958
-39.340	-6.2481
-39.636	-6.3005
-39.931	-6.3528
-40.227	-6.4052
-40.522	-6.4575
-40.818	-6.5099
-41.113	-6.5622
-41.409	-6.6146
-41.704	-6.6669
-42.000	-6.7193
-42.295	-6.7716
-42.591	-6.8240
-42.886	-6.8763
-43.181	-6.9287
-43.477	-6.9810
-43.772	-7.0334
-44.068	-7.0857
-44.363	-7.1381
-44.656	-7.1904
-44.948	-7.2428
-45.240	-7.2951
-45.532	-7.3475
-45.824	-7.3998
-46.116	-7.4522
-46.408	-7.5045
-46.700	-7.5569
-46.992	-7.6092
-47.284	-7.6616
-47.576	-7.7139
-47.868	-7.7663
-48.159	-7.8186
-48.451	-7.8710
-48.743	-7.9233
-49.035	-7.9757
-49.327	-8.0280
-49.619	-8.0804
-49.911	-8.1327
-50.203	-8.1851
-50.495	-8.2374
-50.787	-8.2898
-51.079	-8.3421
-51.371	-8.3945
-51.663	-8.4468
-51.954	-8.4992
-52.246	-8.5515
-52.538	-8.6039
-52.830	-8.6562
-53.122	-8.7086
-53.414	-8.7609
-53.706	-8.8133
-53.998	-8.8656
-54.290	-8.9180
-54.582	-8.9703
-54.874	-9.0227
-55.166	-9.0750
-55.458	-9.1274
-55.749	-9.1797
-56.041	-9.2321
-56.333	-9.2844
-56.625	-9.3368
-56.917	-9.3891
-57.209	-9.4415
-57.502	-9.4938
-57.799	-9.5462
-58.096	-9.5985
-58.393	-9.6509
-58.690	-9.7032
-58.987	-9.7556
-59.284	-9.8079
-59.581	-9.8603
-59.879	-9.9109
-60.176	-9.9613
-60.473	-10.010
-60.770	-10.030
-57.405	-10.012
-57.282	-10.007
-57.160	-10.007
-57.037	-10.008
-56.915	-10.009
-56.792	-9.9984
-50.188	-9.9588
-48.000	-9.9114
-39.723	-9.8640
-39.434	-9.8165
-39.144	-9.7691
-38.855	-9.7215
-38.565	-9.6691
-38.276	-9.6168
-37.987	-9.5645
-37.697	-9.5121
-37.408	-9.4598
-37.118	-9.4075
-36.829	-9.3551
-36.539	-9.3028
-36.250	-9.2505
-35.960	-9.1981
-35.671	-9.1458
-35.381	-9.0935
-35.092	-9.0411
-34.802	-8.9888
-34.513	-8.9365
-34.223	-8.8841
-33.934	-8.8318
-33.644	-8.7795
-33.355	-8.7271
-33.065	-8.6748
-32.776	-8.6225
-32.487	-8.5701
-32.197	-8.5178
-31.908	-8.4655
-31.618	-8.4131
-31.329	-8.3608
-31.039	-8.3085
-30.750	-8.2561
-30.460	-8.2038
-30.171	-8.1515
-29.881	-8.0991
-29.592	-8.0468
-29.271	-7.9945
-28.907	-7.9421
-28.543	-7.8898
-28.179	-7.8375
-27.815	-7.7851
-27.451	-7.7328
-27.087	-7.6805
-26.723	-7.6281
-26.359	-7.5758
-25.994	-7.5235
-25.630	-7.4711
-25.266	-7.4188
-24.988	-7.3665
-24.803	-7.3141
-24.618	-7.2618
-24.433	-7.2095
-24.248	-7.1571
-24.063	-7.1048
-23.878	-7.0525
-23.693	-7.0001
-23.508	-6.9478
-23.323	-6.8955
-23.138	-6.8431
-22.953	-6.7908
-22.768	-6.7385
-22.583	-6.6861
-22.398	-6.6338
-22.213	-6.5814
-22.028	-6.5291
-21.843	-6.4768
-21.658	-6.4244
-21.473	-6.3721
-21.288	-6.3198
-21.103	-6.2674
-20.918	-6.2151
-20.733	-6.1628
-20.548	-6.1104
-20.295	-6.0581
-20.026	-6.0058
-19.757	-5.9534
-19.488	-5.9011
-19.219	-5.8488
-18.950	-5.7964
-18.682	-5.7441
-18.413	-5.6918
-18.144	-5.6394
-17.875	-5.5871
-17.606	-5.5348
-17.337	-5.4824
-17.068	-5.4301
-16.800	-5.3778
-16.531	-5.3254
-16.262	-5.2731
-15.993	-5.2208
-15.724	-5.1684
-15.455	-5.1161
-15.186	-5.0638
-15.038	-5.0114
-14.901	-4.9591
-14.764	-4.9068
-14.627	-4.8544
-14.490	-4.8021
-14.354	-4.7498
-14.217	-4.6974
-14.080	-4.6451
-13.943	-4.5928
-13.806	-4.5404
-13.498	-4.4881
-13.060	-4.4358
-12.622	-4.3834
-12.184	-4.3311
-11.746	-4.2788
-11.308	-4.2264
-10.870	-4.1741
-10.432	-4.1218
-9.9939	-4.0694
-9.5558	-4.0171
-9.1178	-3.9648
-8.6798	-3.9124
-8.4086	-3.8601
-8.2348	-3.8078
-8.0611	-3.7554
-7.8873	-3.7031
-7.7136	-3.6508
-7.5398	-3.5984
-7.3660	-3.5461
-7.1923	-3.4938
-7.0185	-3.4414
-6.8448	-3.3891
-6.6710	-3.3368
-6.4972	-3.2844
-6.3235	-3.2321
-6.1497	-3.1718
-5.9759	-3.1196
-5.8022	-3.0673
-5.6284	-3.0151
-5.4547	-2.9628
-5.2809	-2.9106
-5.1071	-2.8583
-4.9334	-2.8061
-4.7596	-2.7538
-4.5859	-2.7016
-4.4121	-2.6493
-4.2383	-2.5971
-4.0646	-2.5448
-3.8380	-2.4926
-3.5217	-2.4403
-3.2054	-2.3880
-2.8891	-2.3357
-2.5728	-2.2834
-2.2565	-2.2310
-1.9402	-2.1787
-1.6239	-2.1264
-1.3076	-2.0741
-0.99133	-2.0218
-0.67504	-1.9695
-0.35874	-1.9171
-0.042449	-1.8648
0.27385	-1.8125
0.59014	-1.7602
0.90644	-1.7079
1.2227	-1.6556
1.5390	-1.6032
1.8522	-1.5509
2.1230	-1.4986
2.3937	-1.4463
2.6645	-1.3940
2.9352	-1.3417
3.2059	-1.2893
3.4767	-1.2370
3.7474	-1.1847
4.0181	-1.1324
4.2889	-1.0801
4.5596	-1.0277
4.8304	-0.97543
5.1011	-0.92311
5.3718	-0.87080
5.6426	-0.81851
5.9133	-0.76624
6.1841	-0.71398
6.4548	-0.66171
6.7255	-0.60944
6.9963	-0.55718
7.2670	-0.50491
7.5378	-0.45265
7.7899	-0.40038
8.0288	-0.34811
8.2676	-0.29585
8.5064	-0.24358
8.7452	-0.19132
8.9841	-0.13905
9.2229	-0.086785
9.4617	-0.034519
9.7005	0.017747
9.9394	0.070013
10.178	0.12228
10.417	0.17454
10.656	0.22681
10.895	0.27908
11.134	0.33134
11.372	0.38361
11.611	0.43661
11.850	0.48999
12.089	0.54336
12.328	0.59624
12.566	0.64859
12.805	0.70094
13.044	0.75329
13.283	0.80563
13.522	0.85798
13.761	0.91033
13.999	0.96268
14.238	1.0150
14.477	1.0674
14.716	1.1197
14.955	1.1721
15.194	1.2244
15.432	1.2768
15.671	1.3291
15.910	1.3815
16.133	1.4338
16.345	1.4862
16.557	1.5385
16.769	1.5909
16.980	1.6432
17.192	1.6955
17.404	1.7479
17.616	1.8002
17.827	1.8526
18.039	1.9049
18.251	1.9573
18.463	2.0096
18.674	2.0620
18.998	2.1143
19.344	2.1667
19.689	2.2190
20.035	2.2714
20.381	2.3237
20.726	2.3761
21.072	2.4284
21.418	2.4808
21.763	2.5331
22.109	2.5855
22.433	2.6378
22.735	2.6902
23.037	2.7425
23.339	2.7949
23.641	2.8472
23.942	2.8995
24.244	2.9519
24.546	3.0042
24.848	3.0566
25.150	3.1089
25.452	3.1613
25.754	3.2136
26.055	3.2660
26.357	3.3183
26.659	3.3707
26.961	3.4230
27.263	3.4754
27.565	3.5277
27.866	3.5801
28.168	3.6324
28.470	3.6848
28.772	3.7371
29.074	3.7895
29.376	3.8418
29.678	3.8942
29.979	3.9466
30.281	3.9990
30.583	4.0514
30.885	4.1037
31.075	4.1561
31.244	4.2085
31.413	4.2609
31.582	4.3133
31.751	4.3656
31.920	4.4180
32.089	4.4704
32.258	4.5228
32.427	4.5751
32.595	4.6275
32.764	4.6799
32.933	4.7323
33.102	4.7847
33.271	4.8370
33.440	4.8894
33.609	4.9418
33.808	4.9942
34.204	5.0466
34.600	5.0989
34.997	5.1513
35.393	5.2037
35.789	5.2561
36.186	5.3084
36.582	5.3608
36.978	5.4132
37.375	5.4656
37.771	5.5180
38.167	5.5703
38.563	5.6227
38.960	5.6751
39.356	5.7275
39.752	5.7799
40.149	5.8322
40.545	5.8846
40.941	5.9370
41.338	5.9894
41.690	6.0418
41.901	6.0941
42.111	6.1465
42.322	6.1989
42.532	6.2513
42.743	6.3034
42.953	6.3551
43.164	6.4068
43.374	6.4586
43.585	6.5106
43.795	6.5629
44.006	6.6153
44.217	6.6676
44.427	6.7199
44.638	6.7722
44.848	6.8245
45.059	6.8769
45.269	6.9292
45.480	6.9815
45.690	7.0338
45.901	7.0861
46.111	7.1385
46.322	7.1908
46.532	7.2431
46.743	7.2954
46.953	7.3478
47.164	7.4001
47.381	7.4524
47.627	7.5047
47.873	7.5570
48.119	7.6094
48.365	7.6617
48.611	7.7140
48.857	7.7663
49.104	7.8186
49.350	7.8710
49.682	7.9233
50.130	7.9756
50.578	8.0279
51.026	8.0803
51.475	8.1326
51.923	8.1849
52.371	8.2372
52.775	8.2895
53.053	8.3419
53.332	8.3942
53.611	8.4465
53.890	8.4988
54.169	8.5511
54.448	8.6035
54.727	8.6558
55.006	8.7081
55.285	8.7604
55.564	8.8128
55.843	8.8651
56.122	8.9174
56.401	8.9697
56.680	9.0220
56.958	9.0744
57.237	9.1267
57.516	9.1790
57.795	9.2313
58.010	9.2836
58.221	9.3360
58.433	9.3883
58.644	9.4406
58.856	9.4931
59.068	9.5455
59.279	9.5979
59.491	9.6504
59.702	9.7028
59.914	9.7553
60.126	9.8077
60.337	9.8602
60.549	9.9126
60.760	9.9651
61.052	10.003
60.812	9.9803
51.414	9.9059
50.158	9.8532
48.951	9.8082
48.558	9.7627
48.165	9.7099
47.772	9.6606
47.379	9.6152
46.986	9.5691
46.594	9.5167
46.201	9.4644
45.808	9.4120
45.415	9.3596
45.022	9.3073
44.629	9.2549
44.237	9.2025
43.844	9.1502
43.451	9.0978
43.058	9.0455
42.665	8.9931
42.272	8.9407
41.880	8.8884
41.487	8.8360
41.094	8.7837
40.701	8.7313
40.308	8.6789
39.915	8.6266
39.522	8.5742
39.130	8.5218
38.737	8.4695
38.344	8.4171
37.951	8.3648
37.558	8.3124
37.209	8.2600
36.921	8.2077
36.633	8.1553
36.345	8.1030
36.057	8.0506
35.768	7.9982
35.480	7.9459
35.192	7.8935
34.904	7.8412
34.616	7.7888
34.328	7.7364
34.040	7.6841
33.751	7.6317
33.463	7.5793
33.175	7.5270
32.887	7.4746
32.599	7.4223
32.311	7.3699
32.023	7.3175
31.734	7.2652
31.446	7.2128
31.158	7.1605
30.870	7.1081
30.582	7.0557
30.294	7.0034
30.006	6.9510
29.717	6.8986
29.429	6.8463
29.141	6.7939
28.853	6.7416
28.565	6.6892
28.277	6.6368
27.989	6.5845
27.700	6.5321
27.412	6.4798
27.124	6.4274
26.836	6.3750
26.548	6.3227
26.260	6.2703
25.972	6.2180
25.683	6.1656
25.395	6.1132
25.107	6.0609
24.819	6.0085
24.531	5.9561
24.243	5.9038
23.955	5.8514
23.666	5.7991
23.378	5.7467
23.090	5.6943
22.802	5.6420
22.514	5.5896
22.226	5.5373
21.937	5.4849
21.649	5.4325
21.361	5.3802
21.073	5.3278
20.785	5.2754
20.497	5.2231
20.209	5.1707
19.920	5.1184
19.632	5.0660
19.344	5.0136
19.056	4.9613
18.768	4.9089
18.480	4.8566
18.192	4.8042
17.903	4.7518
17.615	4.6995
17.327	4.6471
17.039	4.5947
16.751	4.5424
16.463	4.4900
16.175	4.4377
15.886	4.3853
15.598	4.3329
15.310	4.2805
15.022	4.2281
14.734	4.1757
14.446	4.1233
14.158	4.0709
13.869	4.0185
13.581	3.9661
13.293	3.9137
13.005	3.8613
12.717	3.8089
12.429	3.7565
12.141	3.7041
11.852	3.6517
11.564	3.5993
11.276	3.5469
10.988	3.4945
10.700	3.4421
10.412	3.3898
10.124	3.3374
9.8354	3.2851
9.5472	3.2327
9.2591	3.1803
8.9709	3.1280
8.6828	3.0756
8.3946	3.0233
8.1065	2.9709
7.8183	2.9185
7.5302	2.8662
7.2421	2.8138
6.9539	2.7614
6.6658	2.7091
6.3776	2.6567
6.0895	2.6044
5.8013	2.5520
5.5132	2.4996
5.2250	2.4473
4.9369	2.3949
4.6487	2.3425
4.3606	2.2902
4.0725	2.2378
3.7843	2.1855
3.4962	2.1331
3.2080	2.0807
2.9199	2.0284
2.6317	1.9760
2.3436	1.9237
2.0554	1.8713
1.7673	1.8189
1.4791	1.7666
1.1910	1.7142
0.90285	1.6618
0.61471	1.6095
0.32656	1.5571
0.038414	1.5048
-0.24973	1.4524
-0.53788	1.4000
-0.82602	1.3477
-1.1142	1.2953
-1.4023	1.2430
-1.6905	1.1906
-1.9786	1.1382
-2.2668	1.0859
-2.5549	1.0335
-2.8430	0.98114
-3.1312	0.92878
-3.4193	0.87642
-3.7075	0.82406
-3.9956	0.77169
-4.2838	0.71933
-4.5719	0.66697
-4.8601	0.61461
-5.1482	0.56225
-5.4364	0.50989
-5.7245	0.45758
-6.0126	0.40531
-6.3008	0.35305
-6.5889	0.30078
-6.8771	0.24851
-7.1652	0.19624
-7.4534	0.14398
-7.7415	0.091710
-8.0297	0.039443
-8.3178	-0.012825
-8.6060	-0.065092
-8.8941	-0.11736
-9.1681	-0.16963
-9.4350	-0.22189
-9.7020	-0.27416
-9.9690	-0.32643
-10.236	-0.37870
-10.503	-0.43096
-10.770	-0.48323
-11.037	-0.53550
-11.304	-0.58776
-11.571	-0.64003
-11.838	-0.69230
-12.105	-0.74457
-12.372	-0.79683
-12.639	-0.84910
-12.906	-0.90137
-13.173	-0.95364
-13.440	-1.0059
-13.707	-1.0582
-13.974	-1.1104
-14.241	-1.1627
-14.508	-1.2150
-14.775	-1.2672
-15.042	-1.3195
-15.309	-1.3718
-15.576	-1.4240
-15.843	-1.4763
-16.110	-1.5286
-16.377	-1.5808
-16.644	-1.6331
-16.911	-1.6854
-17.178	-1.7376
-17.445	-1.7899
-17.712	-1.8422
-17.980	-1.8945
-18.248	-1.9467
-18.516	-1.9990
-18.785	-2.0513
-19.053	-2.1036
-19.321	-2.1559
-19.589	-2.2082
-19.858	-2.2605
-20.126	-2.3128
-20.394	-2.3651
-20.662	-2.4174
-20.931	-2.4697
-21.199	-2.5220
-21.467	-2.5743
-21.735	-2.6266
-22.003	-2.6789
-22.272	-2.7311
-22.540	-2.7834
-22.808	-2.8357
-23.076	-2.8880
-23.345	-2.9403
-23.613	-2.9926
-23.881	-3.0449
-24.149	-3.0972
-24.418	-3.1495
-24.686	-3.2018
-24.954	-3.2541
-25.222	-3.3064
-25.491	-3.3587
-25.759	-3.4110
-26.027	-3.4633
-26.295	-3.5155
-26.564	-3.5678
-26.832	-3.6203
-27.100	-3.6728
-27.368	-3.7253
-27.636	-3.7778
-27.905	-3.8304
-28.173	-3.8829
-28.441	-3.9354
-28.709	-3.9879
-28.978	-4.0404
-29.246	-4.0930
-29.514	-4.1455
-29.782	-4.1979
-30.051	-4.2502
-30.319	-4.3026
-30.587	-4.3549
-30.855	-4.4073
-31.124	-4.4596
-31.395	-4.5119
-31.696	-4.5643
-31.996	-4.6166
-32.296	-4.6690
-32.597	-4.7213
-32.897	-4.7736
-33.197	-4.8260
-33.497	-4.8783
-33.798	-4.9306
-34.098	-4.9830
-34.398	-5.0353
-34.698	-5.0877
-34.999	-5.1400
-35.299	-5.1923
-35.599	-5.2447
-35.900	-5.2970
-36.200	-5.3494
-36.500	-5.4017
-36.800	-5.4540
-37.101	-5.5064
-37.401	-5.5587
-37.701	-5.6111
-38.001	-5.6634
-38.302	-5.7157
-38.602	-5.7681
-38.902	-5.8204
-39.203	-5.8727
-39.503	-5.9251
-39.803	-5.9774
-40.103	-6.0298
-40.404	-6.0821
-40.704	-6.1344
-41.004	-6.1868
-41.304	-6.2391
-41.605	-6.2914
-41.905	-6.3438
-42.205	-6.3961
-42.506	-6.4484
-42.806	-6.5007
-43.106	-6.5531
-43.406	-6.6054
-43.707	-6.6577
-44.007	-6.7100
-44.307	-6.7624
-44.607	-6.8147
-44.908	-6.8670
-45.208	-6.9194
-45.508	-6.9717
-45.808	-7.0240
-46.109	-7.0763
-46.409	-7.1287
-46.709	-7.1810
-47.010	-7.2333
-47.310	-7.2856
-47.610	-7.3380
-47.910	-7.3903
-48.211	-7.4426
-48.511	-7.4949
-48.811	-7.5473
-49.111	-7.5996
-49.412	-7.6519
-49.712	-7.7042
-50.012	-7.7565
-50.313	-7.8088
-50.613	-7.8611
-50.913	-7.9133
-51.213	-7.9656
-51.514	-8.0179
-51.814	-8.0702
-52.114	-8.1225
-52.414	-8.1748
-52.715	-8.2271
-53.015	-8.2794
-53.315	-8.3317
-53.612	-8.3839
-53.879	-8.4362
-54.146	-8.4885
-54.413	-8.5408
-54.680	-8.5936
-54.947	-8.6464
-55.214	-8.6993
-55.481	-8.7521
-55.748	-8.8050
-56.015	-8.8578
-56.282	-8.9106
-56.549	-8.9630
-56.816	-9.0153
-57.083	-9.0675
-57.350	-9.1198
-57.617	-9.1721
-57.884	-9.2243
-58.151	-9.2766
-58.418	-9.3288
-58.685	-9.3811
-58.953	-9.4333
-59.222	-9.4856
-59.492	-9.5378
-59.761	-9.5904
-60.031	-9.6430
-60.300	-9.6956
-60.570	-9.7482
-60.839	-9.8008
-61.109	-9.8534
-61.378	-9.9060
-61.648	-9.9646
-61.823	-10.013
-60.757	-9.9917
-51.897	-9.9313
-46.403	-9.8796
-38.704	-9.8346
-37.809	-9.7897
-37.361	-9.7672