File: text_data/C8.txt
Load (N)	Extension (mm)

21.353	1.8915
21.364	1.8915
21.375	1.8915
21.387	1.8915
21.398	1.8915
20.769	1.8825
17.038	1.7542
15.253	1.6089
14.011	1.4552
13.322	1.3006
12.223	1.1449
11.172	0.98883
10.195	0.83278
9.2181	0.67676
8.2410	0.52087
7.3489	0.36498
6.5109	0.21158
5.6729	0.056010
5.0101	-0.083897
10.595	-0.080778
4.9548	-0.12827
3.8030	-0.23021
3.0876	-0.37048
2.3722	-0.52491
1.6568	-0.67934
0.85141	-0.83377
-0.0088370	-0.98820
-0.86909	-1.1426
-1.7293	-1.2971
-2.5896	-1.4515
-3.4498	-1.6059
-4.3101	-1.7600
-5.1703	-1.9141
-6.0306	-2.0682
-6.8908	-2.2223
-7.7511	-2.3764
-8.6113	-2.5305
-9.4716	-2.6846
-10.332	-2.8387
-11.192	-2.9929
-12.052	-3.1471
-12.913	-3.3013
-13.773	-3.4556
-14.633	-3.6099
-15.493	-3.7642
-16.354	-3.9185
-17.214	-4.0728
-18.074	-4.2271
-18.934	-4.3814
-19.795	-4.5357
-20.655	-4.6901
-21.515	-4.8444
-22.375	-4.9988
-23.236	-5.1531
-24.096	-5.3075
-24.956	-5.4618
-25.816	-5.6162
-26.677	-5.7705
-27.537	-5.9249
-28.397	-6.0794
-29.257	-6.2340
-30.118	-6.3885
-30.978	-6.5430
-31.838	-6.6971
-32.698	-6.8511
-33.559	-7.0052
-34.419	-7.1592
-35.279	-7.3133
-36.139	-7.4674
-36.999	-7.6214
-37.859	-7.7755
-38.719	-7.9295
-39.579	-8.0836
-40.439	-8.2377
-41.298	-8.3917
-42.158	-8.5458
-43.018	-8.6998
-43.878	-8.8539
-44.738	-9.0080
-45.598	-9.1620
-46.457	-9.3161
-47.317	-9.4705
-48.177	-9.6253
-49.037	-9.7802
-49.897	-9.9350
-50.757	-10.090
-51.617	-10.245
-52.476	-10.399
-53.336	-10.554
-54.196	-10.708
-55.040	-10.863
-55.845	-11.017
-56.650	-11.171
-57.455	-11.326
-58.260	-11.480
-59.065	-11.635
-59.870	-11.789
-60.675	-11.944
-61.480	-12.098
-62.285	-12.252
-63.090	-12.407
-63.895	-12.561
-64.700	-12.716
-65.574	-12.870
-66.459	-13.024
-67.343	-13.179
-68.228	-13.333
-69.113	-13.488
-69.998	-13.642
-70.875	-13.796
-71.697	-13.951
-72.519	-14.105
-73.340	-14.259
-74.162	-14.413
-74.984	-14.568
-75.806	-14.722
-76.628	-14.876
-77.449	-15.031
-78.271	-15.185
-79.093	-15.339
-79.915	-15.494
-80.736	-15.648
-81.558	-15.802
-82.380	-15.956
-83.202	-16.110
-84.023	-16.264
-84.845	-16.418
-85.667	-16.572
-86.489	-16.726
-87.310	-16.880
-88.132	-17.034
-88.954	-17.188
-89.776	-17.342
-90.597	-17.495
-91.486	-17.649
-92.431	-17.803
-93.375	-17.957
-94.319	-18.114
-95.264	-18.269
-96.208	-18.423
-97.152	-18.577
-98.097	-18.732
-99.041	-18.886
-99.986	-19.040
-100.93	-19.194
-101.87	-19.349
-102.82	-19.503
-103.79	-19.657
-105.42	-19.811
-106.66	-19.966
-107.75	-20.120
-108.83	-20.274
-109.91	-20.428
-110.99	-20.583
-112.08	-20.737
-113.16	-20.891
-114.24	-21.045
-115.33	-21.200
-116.41	-21.354
-117.49	-21.508
-118.58	-21.662
-119.66	-21.816
-120.74	-21.971
-122.01	-22.125
-123.29	-22.279
-124.57	-22.433
-125.85	-22.588
-127.24	-22.742
-130.43	-22.896
-133.85	-23.050
-139.34	-23.203
-145.02	-23.357
-157.00	-23.511
-171.93	-23.665
-191.74	-23.819
-209.66	-23.973
-238.43	-24.127
-270.60	-24.280
-296.41	-24.434
-330.53	-24.587
-371.21	-24.740
-412.11	-24.892
-461.23	-25.045
-510.35	-25.159
-511.74	-25.162
-505.84	-25.161
-425.20	-25.027
-335.98	-24.880
-286.91	-24.735
-237.85	-24.587
-188.78	-24.433
-139.71	-24.278
-127.04	-24.124
-125.38	-23.970
-123.72	-23.816
-122.06	-23.661
-120.40	-23.507
-118.74	-23.353
-117.08	-23.198
-115.42	-23.044
-113.76	-22.890
-112.10	-22.735
-110.44	-22.581
-108.78	-22.427
-107.12	-22.273
-105.46	-22.118
-103.80	-21.964
-102.14	-21.810
-100.48	-21.655
-98.824	-21.501
-97.165	-21.347
-95.505	-21.193
-77.520	-21.038
-76.909	-20.884
-76.297	-20.730
-75.686	-20.575
-75.074	-20.421
-74.463	-20.267
-73.851	-20.113
-73.240	-19.958
-72.195	-19.804
-70.955	-19.650
-69.714	-19.495
-68.473	-19.341
-67.323	-19.187
-66.993	-19.032
-66.664	-18.878
-66.334	-18.724
-66.004	-18.570
-65.675	-18.415
-65.345	-18.261
-65.016	-18.107
-63.590	-17.952
-61.906	-17.798
-60.223	-17.644
-59.630	-17.490
-59.247	-17.335
-58.864	-17.181
-58.480	-17.027
-58.097	-16.872
-57.714	-16.718
-57.330	-16.564
-56.947	-16.410
-56.035	-16.255
-54.526	-16.101
-53.018	-15.947
-51.509	-15.792
-50.001	-15.638
-49.301	-15.486
-48.712	-15.332
-48.123	-15.178
-47.535	-15.024
-47.070	-14.869
-46.910	-14.715
-46.751	-14.561
-46.505	-14.407
-44.631	-14.252
-42.757	-14.098
-40.883	-13.944
-39.009	-13.790
-38.366	-13.635
-38.177	-13.481
-37.988	-13.327
-37.799	-13.173
-37.610	-13.018
-37.420	-12.864
-37.211	-12.710
-36.940	-12.555
-36.669	-12.401
-35.528	-12.247
-33.676	-12.093
-31.823	-11.938
-29.971	-11.784
-29.326	-11.630
-29.038	-11.476
-28.751	-11.321
-28.464	-11.167
-28.177	-11.012
-27.890	-10.858
-27.714	-10.703
-27.560	-10.549
-27.407	-10.394
-26.269	-10.240
-24.450	-10.086
-22.632	-9.9310
-20.814	-9.7766
-20.341	-9.6221
-20.182	-9.4676
-20.022	-9.3131
-19.862	-9.1587
-19.703	-9.0042
-19.543	-8.8501
-19.383	-8.6961
-19.224	-8.5420
-17.842	-8.3880
-15.964	-8.2340
-14.087	-8.0799
-12.210	-7.9259
-11.835	-7.7719
-11.570	-7.6145
-11.304	-7.4591
-11.039	-7.3065
-10.774	-7.1539
-10.508	-7.0009
-10.243	-6.8465
-9.9777	-6.6922
-9.7124	-6.5378
-8.0856	-6.3835
-6.0106	-6.2291
-3.9356	-6.0748
-3.2494	-5.9204
-2.9493	-5.7661
-2.6492	-5.6117
-2.3491	-5.4574
-2.0490	-5.3030
-1.7489	-5.1486
-1.4488	-4.9943
-1.1487	-4.8399
-0.84864	-4.6856
0.52907	-4.5312
2.0639	-4.3769
3.5986	-4.2225
5.1334	-4.0682
6.2731	-3.9139
6.4116	-3.7596
6.5501	-3.6053
6.6886	-3.4510
6.8270	-3.2967
6.9655	-3.1424
7.1040	-2.9881
7.9664	-2.8338
9.4626	-2.6795
10.959	-2.5241
12.473	-2.3696
13.991	-2.2155
15.509	-2.0613
16.617	-1.9072
16.867	-1.7530
17.117	-1.5989
17.368	-1.4447
17.618	-1.2906
17.868	-1.1364
18.119	-0.98227
18.369	-0.82812
19.139	-0.67396
20.443	-0.51981
21.746	-0.36566
23.050	-0.21144
24.353	-0.057232
24.839	0.096981
25.237	0.25119
25.635	0.40541
26.033	0.55962
26.431	0.71383
27.041	0.86804
27.712	1.0223
28.384	1.1765
29.055	1.3307
30.311	1.4849
31.571	1.6391
32.830	1.7933
33.700	1.9475
34.155	2.1017
34.610	2.2560
35.065	2.4102
35.520	2.5644
35.975	2.7186
36.430	2.8728
36.885	3.0271
37.454	3.1813
38.894	3.3355
40.335	3.4898
41.294	3.6440
42.030	3.7982
42.767	3.9524
43.503	4.1067
44.240	4.2609
44.977	4.4151
45.647	4.5694
46.294	4.7236
46.941	4.8778
47.588	5.0320
48.421	5.1863
49.336	5.3405
50.250	5.4947
51.165	5.6489
52.080	5.8032
52.915	5.9574
53.563	6.1120
54.210	6.2666
54.857	6.4212
55.505	6.5758
56.152	6.7304
56.799	6.8848
57.584	7.0392
58.400	7.1936
59.216	7.3480
60.032	7.5024
60.848	7.6568
61.664	7.8111
62.480	7.9655
63.296	8.1199
64.112	8.2743
64.965	8.4287
65.840	8.5831
66.715	8.7375
67.590	8.8919
68.378	9.0463
69.152	9.2007
69.926	9.3551
70.700	9.5095
71.474	9.6639
72.512	9.7994
73.551	9.9850
74.391	10.133
75.191	10.280
75.992	10.432
76.793	10.587
77.594	10.741
78.394	10.895
79.195	11.050
79.996	11.204
80.797	11.358
81.891	11.512
83.138	11.667
84.385	11.821
85.337	11.975
86.154	12.130
86.971	12.284
87.788	12.438
88.606	12.592
89.423	12.747
90.240	12.901
91.169	13.055
92.269	13.210
93.369	13.364
94.469	13.518
95.570	13.672
96.670	13.827
97.690	13.981
98.366	14.135
99.043	14.289
99.719	14.444
100.40	14.598
101.07	14.752
101.75	14.907
102.99	15.061
104.24	15.215
105.49	15.369
106.74	15.524
107.99	15.678
109.00	15.832
109.47	15.987
109.93	16.141
110.40	16.295
110.86	16.449
111.47	16.604
112.73	16.758
113.99	16.912
115.24	17.067
116.50	17.221
117.76	17.375
119.02	17.529
120.28	17.684
121.53	17.838
122.47	17.992
123.33	18.147
124.19	18.301
125.06	18.455
125.92	18.610
126.83	18.764
128.04	18.918
129.24	19.073
130.45	19.227
131.66	19.381
132.87	19.536
134.08	19.690
135.29	19.844
135.87	19.999
136.33	20.153
136.80	20.307
137.26	20.461
138.77	20.616
140.53	20.770
142.30	20.924
144.07	21.078
145.65	21.232
146.50	21.387
147.36	21.541
148.22	21.695
149.08	21.849
149.93	22.004
150.79	22.158
151.65	22.312
152.91	22.467
154.83	22.621
156.74	22.775
159.97	22.930
161.26	23.084
162.16	23.238
163.06	23.392
163.97	23.547
164.87	23.701
165.77	23.855
166.68	24.010
167.58	24.164
168.49	24.318
170.42	24.473
172.41	24.627
174.39	24.781
176.37	24.936
177.90	25.090
178.66	25.244
179.43	25.398
180.19	25.553
180.96	25.707
181.72	25.861
182.49	26.016
184.13	26.170
186.30	26.324
188.48	26.479
190.65	26.633
192.83	26.787
195.00	26.942
197.18	27.096
198.00	27.250
198.63	27.405
199.25	27.559
199.88	27.713
200.50	27.868
201.48	28.022
203.86	28.176
206.24	28.331
208.63	28.485
211.01	28.639
213.25	28.794
215.47	28.948
217.70	29.102
218.92	29.255
220.04	29.409
221.17	29.563
222.30	29.717
223.42	29.872
225.10	30.026
228.49	30.180
231.88	30.334
235.27	30.489
238.66	30.643
242.06	30.797
245.49	30.951
248.91	31.106
252.34	31.260
255.77	31.414
258.36	31.568
260.72	31.723
263.09	31.877
265.45	32.031
267.81	32.185
271.98	32.340
277.06	32.494
282.15	32.648
287.23	32.803
292.07	32.957
296.87	33.111
301.68	33.265
306.48	33.420
311.29	33.574
316.09	33.727
320.90	33.881
325.70	34.035
330.50	34.189
336.43	34.343
342.38	34.497
348.34	34.651
355.38	34.805
363.66	34.959
371.95	35.113
380.24	35.267
388.53	35.421
395.11	35.576
401.44	35.730
407.51	35.884
413.22	36.038
418.94	36.192
424.66	36.347
430.38	36.501
436.10	36.655
444.75	36.809
456.29	36.963
467.83	37.118
479.37	37.271
492.76	37.406
445.49	37.268
399.55	37.122
363.32	36.988
340.71	36.834
324.69	36.679
308.68	36.525
292.66	36.371
276.64	36.216
260.63	36.062
253.74	35.908
250.15	35.753
246.57	35.599
242.98	35.445
239.40	35.291
235.81	35.136
232.22	34.982
228.64	34.828
225.05	34.673
221.47	34.519
217.88	34.365
214.30	34.210
210.71	34.056
207.13	33.902
203.54	33.748
199.95	33.593
198.08	33.439
197.70	33.285
197.31	33.130
196.30	32.976
194.80	32.822
193.31	32.667
191.81	32.513
190.31	32.359
188.81	32.205
187.31	32.050
185.81	31.896
184.32	31.742
182.82	31.587
181.32	31.433
179.82	31.279
178.32	31.124
176.83	30.970
175.33	30.816
173.83	30.662
172.33	30.507
170.83	30.353
169.34	30.199
167.84	30.044
166.34	29.890
164.84	29.736
163.40	29.581
162.30	29.427
161.19	29.273
160.08	29.119
158.98	28.964
157.87	28.810
156.76	28.656
155.66	28.501
154.55	28.347
153.44	28.193
152.34	28.038
151.23	27.884
150.12	27.730
149.02	27.576
147.91	27.421
146.80	27.267
145.70	27.113
144.59	26.958
143.49	26.804
142.38	26.650
141.27	26.495
140.17	26.341
139.06	26.187
137.95	26.033
136.85	25.878
135.74	25.724
134.63	25.570
133.53	25.415
132.42	25.261
131.31	25.107
130.21	24.952
129.10	24.798
127.99	24.646
126.89	24.491
125.80	24.336
124.80	24.182
123.81	24.028
122.82	23.873
121.82	23.719
120.83	23.565
119.83	23.410
118.84	23.256
117.85	23.102
116.85	22.948
115.86	22.793
114.87	22.639
113.87	22.485
112.88	22.330
111.89	22.176
110.89	22.022
109.90	21.867
108.91	21.713
107.91	21.559
106.92	21.405
105.93	21.250
104.97	21.095
104.04	20.940
103.11	20.786
102.18	20.632
101.25	20.478
100.32	20.324
99.395	20.169
98.466	20.015
97.536	19.861
96.607	19.707
95.678	19.552
94.748	19.398
93.819	19.244
92.889	19.090
91.960	18.935
91.030	18.781
90.101	18.627
89.171	18.473
88.242	18.318
87.313	18.164
86.381	18.010
85.430	17.856
84.479	17.702
83.528	17.547
82.577	17.393
81.626	17.239
80.676	17.085
79.725	16.930
78.774	16.776
77.823	16.622
76.872	16.468
75.921	16.313
74.970	16.159
74.019	16.005
73.068	15.851
72.117	15.696
71.166	15.542
70.238	15.388
69.350	15.233
68.462	15.079
67.574	14.924
66.686	14.769
65.797	14.615
64.909	14.460
64.021	14.306
63.133	14.152
62.245	13.997
61.357	13.843
60.469	13.688
59.581	13.534
58.693	13.380
57.805	13.225
56.917	13.071
56.028	12.917
55.140	12.762
54.252	12.608
53.364	12.454
52.476	12.299
51.588	12.145
50.700	11.991
49.812	11.836
48.924	11.682
48.549	11.528
48.023	11.373
47.243	11.219
46.463	11.065
45.683	10.910
44.904	10.756
44.124	10.602
43.344	10.448
42.564	10.293
41.779	10.139
40.927	9.9847
40.076	9.8304
39.225	9.6761
38.373	9.5218
37.522	9.3675
36.670	9.2132
35.819	9.0589
34.968	8.9046
34.116	8.7503
33.268	8.5960
32.421	8.4417
31.575	8.2874
30.729	8.1331
29.882	7.9788
29.036	7.8245
28.189	7.6702
27.343	7.5159
26.497	7.3616
25.650	7.2073
24.804	7.0530
23.957	6.8987
23.111	6.7444
22.265	6.5900
21.418	6.4358
20.572	6.2816
19.725	6.1274
18.879	5.9732
18.032	5.8190
17.186	5.6648
16.340	5.5106
15.493	5.3564
14.647	5.2021
13.800	5.0479
12.954	4.8936
12.108	4.7394
11.261	4.5851
10.416	4.4309
9.5799	4.2767
8.7442	4.1224
7.9084	3.9682
7.0727	3.8139
6.2370	3.6597
5.4013	3.5054
4.5655	3.3512
3.7298	3.1969
2.8941	3.0427
2.0584	2.8884
1.2226	2.7342
0.38691	2.5800
-0.44881	2.4257
-1.2845	2.2715
-2.1203	2.1172
-2.9560	1.9630
-3.7917	1.8087
-4.6274	1.6545
-5.4632	1.5002
-6.2989	1.3460
-7.1346	1.1918
-7.9383	1.0375
-8.7076	0.88326
-9.4769	0.72902
-10.246	0.57477
-11.016	0.42053
-11.785	0.26628
-12.554	0.11204
-13.324	-0.042206
-14.093	-0.19645
-14.862	-0.35070
-15.632	-0.50494
-16.401	-0.65919
-17.170	-0.81343
-17.940	-0.96768
-18.709	-1.1219
-19.478	-1.2767
-20.248	-1.4317
-21.017	-1.5867
-21.786	-1.7414
-22.556	-1.8957
-23.325	-2.0500
-24.094	-2.2043
-24.864	-2.3585
-25.633	-2.5128
-26.402	-2.6671
-27.172	-2.8214
-28.006	-2.9757
-28.853	-3.1299
-29.700	-3.2842
-30.547	-3.4385
-31.395	-3.5928
-32.242	-3.7471
-33.089	-3.9013
-33.936	-4.0556
-34.783	-4.2099
-35.630	-4.3642
-36.477	-4.5184
-37.324	-4.6727
-38.171	-4.8270
-39.019	-4.9813
-39.866	-5.1356
-40.713	-5.2898
-41.560	-5.4441
-42.407	-5.5984
-43.254	-5.7527
-44.101	-5.9069
-44.948	-6.0612
-45.796	-6.2155
-46.643	-6.3698
-47.428	-6.5241
-48.094	-6.6783
-48.761	-6.8326
-49.427	-6.9869
-50.094	-7.1411
-50.760	-7.2954
-51.427	-7.4496
-52.093	-7.6039
-52.808	-7.7581
-53.567	-7.9124
-54.326	-8.0667
-55.086	-8.2209
-55.845	-8.3752
-56.605	-8.5294
-57.364	-8.6837
-58.123	-8.8380
-58.883	-8.9922
-59.642	-9.1465
-60.402	-9.3007
-61.161	-9.4550
-61.920	-9.6092
-62.680	-9.7635
-63.439	-9.9178
-64.317	-10.072
-65.203	-10.226
-66.089	-10.381
-66.974	-10.535
-67.860	-10.689
-68.746	-10.843
-69.632	-10.998
-70.518	-11.152
-71.404	-11.307
-72.289	-11.461
-73.175	-11.616
-74.061	-11.770
-74.947	-11.924
-75.833	-12.079
-76.719	-12.233
-77.604	-12.388
-78.490	-12.542
-79.376	-12.696
-80.419	-12.850
-81.576	-13.005
-82.734	-13.159
-83.891	-13.313
-85.049	-13.468
-86.112	-13.622
-87.174	-13.776
-88.235	-13.930
-89.297	-14.084
-90.359	-14.239
-91.420	-14.393
-92.482	-14.547
-93.544	-14.701
-94.606	-14.856
-95.667	-15.010
-96.729	-15.164
-97.791	-15.318
-98.833	-15.473
-99.829	-15.627
-100.83	-15.781
-101.84	-15.935
-102.89	-16.089
-103.94	-16.244
-104.98	-16.398
-106.03	-16.552
-107.08	-16.706
-108.20	-16.861
-109.84	-17.015
-111.47	-17.169
-113.11	-17.323
-114.75	-17.478
-116.39	-17.632
-118.03	-17.786
-119.66	-17.940
-121.30	-18.095
-122.94	-18.249
-124.58	-18.403
-126.22	-18.558
-127.85	-18.712
-129.49	-18.866
-131.13	-19.021
-132.71	-19.175
-134.23	-19.329
-135.76	-19.483
-137.29	-19.638
-138.81	-19.792
-140.34	-19.946
-141.87	-20.101
-143.39	-20.255
-144.92	-20.409
-146.44	-20.563
-148.48	-20.715
-150.63	-20.869
-152.79	-21.023
-154.94	-21.178
-157.09	-21.332
-159.32	-21.486
-162.02	-21.640
-164.72	-21.794
-167.42	-21.949
-170.12	-22.103
-180.72	-22.257
-188.06	-22.411
-194.91	-22.565
-201.51	-22.719
-208.12	-22.874
-214.98	-23.028
-223.17	-23.182
-231.37	-23.336
-241.56	-23.490
-254.13	-23.645
-266.74	-23.799
-279.35	-23.953
-296.95	-24.107
-316.89	-24.260
-336.83	-24.413
-356.77	-24.567
-382.85	-24.720
-412.09	-24.874
-457.83	-25.027
-497.99	-25.145
-383.24	-24.981
-355.10	-24.914