File: text_data/C9 - 10.txt
Load (N)	Extension (mm)

18.742
18.742	0.28046
18.742	0.28046
18.743	0.28046
18.743	0.28046
18.744	0.28046
18.744	0.28046
18.744	0.28046
18.745	0.28046
18.745	0.28046
18.745	0.28046
18.746	0.28046
18.746	0.28046
18.747	0.28046
18.747	0.28046
18.747	0.28046
18.748	0.28046
18.748	0.28046
15.935	0.25278
12.567	0.20697
9.1202	0.16369
7.0155	0.11598
6.6239	0.066814
5.5170	0.017644
5.2945	-0.020375
5.1492	-0.035090
6.1409	-0.034980
6.2469	-0.034870
6.3528	-0.034760
6.4588	-0.034650
6.5648	-0.034540
6.6708	-0.035839
4.5596	-0.061762
3.8561	-0.11033
3.3617	-0.15326
2.8673	-0.20025
2.3729	-0.25072
1.8785	-0.30155
1.3840	-0.35425
0.88962	-0.40696
0.39521	-0.45967
-0.099203	-0.51238
-0.59362	-0.56509
-1.0880	-0.61780
-1.5824	-0.67050
-2.0769	-0.72321
-2.5713	-0.77592
-3.0657	-0.82863
-3.5468	-0.88167
-3.8347	-0.93476
-4.1227	-0.98785
-4.4107	-1.0409
-4.6986	-1.0940
-4.9866	-1.1471
-5.2746	-1.2002
-5.5626	-1.2533
-5.8505	-1.3064
-6.1385	-1.3595
-6.4265	-1.4126
-6.7144	-1.4653
-7.0024	-1.5180
-7.2904	-1.5706
-7.5783	-1.6232
-7.8663	-1.6759
-8.1543	-1.7285
-8.4423	-1.7811
-8.7302	-1.8338
-9.0182	-1.8864
-9.3062	-1.9390
-9.5941	-1.9917
-9.8821	-2.0443
-10.170	-2.0969
-10.458	-2.1496
-10.746	-2.2022
-11.034	-2.2548
-11.322	-2.3075
-11.610	-2.3601
-11.898	-2.4127
-12.186	-2.4654
-12.474	-2.5180
-12.762	-2.5706
-13.050	-2.6233
-13.338	-2.6759
-13.626	-2.7286
-13.914	-2.7813
-14.202	-2.8340
-14.490	-2.8868
-14.778	-2.9394
-15.066	-2.9920
-15.354	-3.0447
-15.642	-3.0973
-15.930	-3.1499
-16.217	-3.2026
-16.505	-3.2552
-16.793	-3.3078
-17.081	-3.3605
-17.369	-3.4131
-17.657	-3.4657
-17.945	-3.5183
-18.233	-3.5710
-18.521	-3.6236
-18.809	-3.6762
-19.097	-3.7289
-19.385	-3.7815
-19.673	-3.8340
-19.961	-3.8865
-20.249	-3.9391
-20.537	-3.9916
-20.825	-4.0442
-21.113	-4.0967
-21.401	-4.1492
-21.689	-4.2018
-21.977	-4.2543
-22.265	-4.3069
-22.553	-4.3594
-22.841	-4.4119
-23.129	-4.4645
-23.417	-4.5170
-23.705	-4.5696
-23.993	-4.6221
-24.281	-4.6746
-24.569	-4.7272
-24.857	-4.7797
-25.145	-4.8323
-25.433	-4.8848
-25.721	-4.9373
-26.008	-4.9899
-26.296	-5.0424
-26.584	-5.0949
-26.872	-5.1475
-27.160	-5.2000
-27.448	-5.2526
-27.736	-5.3051
-28.024	-5.3576
-28.312	-5.4102
-28.600	-5.4627
-28.888	-5.5153
-29.176	-5.5678
-29.464	-5.6203
-29.752	-5.6729
-30.040	-5.7254
-30.328	-5.7780
-30.616	-5.8305
-30.904	-5.8830
-31.192	-5.9356
-31.480	-5.9881
-31.768	-6.0407
-32.056	-6.0932
-32.344	-6.1457
-32.632	-6.1983
-32.920	-6.2508
-33.208	-6.3034
-33.500	-6.3559
-33.804	-6.4084
-34.109	-6.4610
-34.413	-6.5135
-34.718	-6.5661
-35.022	-6.6186
-35.327	-6.6711
-35.631	-6.7237
-35.936	-6.7762
-36.240	-6.8288
-36.545	-6.8813
-36.850	-6.9338
-37.154	-6.9864
-37.459	-7.0389
-37.763	-7.0915
-38.068	-7.1440
-38.372	-7.1965
-38.677	-7.2491
-38.981	-7.3016
-39.286	-7.3541
-39.590	-7.4066
-39.895	-7.4591
-40.199	-7.5117
-40.504	-7.5642
-40.809	-7.6167
-41.113	-7.6692
-41.418	-7.7217
-41.722	-7.7742
-42.027	-7.8267
-42.331	-7.8793
-42.636	-7.9318
-42.940	-7.9843
-43.245	-8.0368
-43.549	-8.0893
-43.854	-8.1418
-44.159	-8.1944
-44.463	-8.2469
-44.768	-8.2994
-45.072	-8.3519
-45.377	-8.4044
-45.681	-8.4569
-45.986	-8.5095
-46.290	-8.5620
-46.595	-8.6145
-46.899	-8.6670
-47.204	-8.7195
-47.508	-8.7720
-47.790	-8.8245
-48.044	-8.8771
-48.298	-8.9296
-48.553	-8.9821
-48.807	-9.0346
-49.062	-9.0871
-49.316	-9.1396
-49.570	-9.1922
-49.825	-9.2447
-50.079	-9.2972
-50.334	-9.3497
-50.588	-9.4022
-50.842	-9.4547
-51.097	-9.5072
-51.351	-9.5598
-51.605	-9.6123
-51.860	-9.6648
-52.114	-9.7173
-52.365	-9.7698
-52.603	-9.8223
-52.841	-9.8749
-53.079	-9.9274
-53.317	-9.9777
-53.554	-10.014
-53.792	-10.019
-39.788	-9.9999
-40.922	-10.002
-42.819	-10.004
-43.060	-10.006
-43.301	-10.008
-43.542	-10.002
-38.223	-9.9632
-35.696	-9.9127
-35.455	-9.8621
-35.214	-9.8116
-34.973	-9.7611
-34.732	-9.7106
-34.490	-9.6600
-34.249	-9.6095
-34.008	-9.5590
-33.767	-9.5085
-33.526	-9.4580
-33.285	-9.4074
-33.044	-9.3569
-32.803	-9.3046
-32.562	-9.2520
-32.320	-9.1995
-32.079	-9.1469
-31.838	-9.0943
-31.597	-9.0418
-31.356	-8.9892
-31.115	-8.9366
-30.874	-8.8841
-30.633	-8.8315
-30.391	-8.7789
-30.150	-8.7264
-29.909	-8.6738
-29.668	-8.6212
-29.427	-8.5687
-29.186	-8.5161
-28.945	-8.4635
-28.704	-8.4110
-28.463	-8.3584
-28.221	-8.3058
-27.980	-8.2533
-27.739	-8.2007
-27.498	-8.1481
-27.257	-8.0956
-27.016	-8.0430
-26.775	-7.9904
-26.534	-7.9379
-26.293	-7.8853
-26.036	-7.8327
-25.749	-7.7802
-25.462	-7.7276
-25.175	-7.6750
-24.888	-7.6225
-24.601	-7.5699
-24.314	-7.5173
-24.027	-7.4648
-23.740	-7.4122
-23.453	-7.3596
-23.166	-7.3071
-22.879	-7.2545
-22.592	-7.2019
-22.305	-7.1494
-22.018	-7.0968
-21.731	-7.0442
-21.444	-6.9917
-21.157	-6.9391
-20.870	-6.8865
-20.583	-6.8340
-20.296	-6.7814
-20.009	-6.7288
-19.722	-6.6763
-19.435	-6.6237
-19.148	-6.5711
-18.861	-6.5186
-18.574	-6.4660
-18.287	-6.4134
-18.000	-6.3609
-17.713	-6.3083
-17.426	-6.2557
-17.139	-6.2032
-16.678	-6.1506
-16.115	-6.0980
-15.553	-6.0454
-14.991	-5.9929
-14.428	-5.9403
-14.117	-5.8877
-13.842	-5.8352
-13.566	-5.7826
-13.290	-5.7300
-13.014	-5.6775
-12.739	-5.6249
-12.463	-5.5723
-12.187	-5.5198
-11.912	-5.4672
-11.636	-5.4146
-11.360	-5.3621
-11.085	-5.3095
-10.809	-5.2569
-10.533	-5.2044
-10.258	-5.1518
-9.9819	-5.0992
-9.7062	-5.0467
-9.4305	-4.9941
-9.1548	-4.9415
-8.8791	-4.8890
-8.6034	-4.8364
-8.3277	-4.7838
-8.0520	-4.7313
-7.7763	-4.6787
-7.5006	-4.6261
-7.2249	-4.5736
-6.9492	-4.5210
-6.6736	-4.4684
-6.3979	-4.4159
-6.1222	-4.3633
-5.8465	-4.3107
-5.5708	-4.2582
-5.2951	-4.2056
-5.0194	-4.1530
-4.7437	-4.1005
-4.4680	-4.0479
-4.1923	-3.9953
-3.9166	-3.9428
-3.6409	-3.8902
-3.3652	-3.8376
-3.0895	-3.7851
-2.8138	-3.7325
-2.5382	-3.6799
-2.2625	-3.6274
-1.9868	-3.5748
-1.7111	-3.5222
-1.4354	-3.4697
-1.1597	-3.4171
-0.88400	-3.3645
-0.60831	-3.3120
-0.33261	-3.2594
-0.056920	-3.2068
0.21877	-3.1543
0.49447	-3.1017
0.77016	-3.0491
1.0459	-2.9966
1.3215	-2.9440
1.5972	-2.8914
1.8729	-2.8389
2.1486	-2.7863
2.4243	-2.7337
2.7000	-2.6812
2.9757	-2.6286
3.2514	-2.5760
3.5271	-2.5235
3.8028	-2.4709
4.0785	-2.4183
4.3542	-2.3658
4.6299	-2.3132
4.9056	-2.2606
5.1812	-2.2081
5.4569	-2.1555
5.7326	-2.1029
6.0083	-2.0504
6.3054	-1.9978
6.6390	-1.9452
6.9726	-1.8927
7.3062	-1.8401
7.6398	-1.7840
7.9734	-1.7280
8.3070	-1.6756
8.6406	-1.6231
8.9742	-1.5706
9.3078	-1.5181
9.6414	-1.4657
9.9750	-1.4132
10.309	-1.3607
10.642	-1.3082
10.976	-1.2557
11.309	-1.2033
11.643	-1.1508
11.977	-1.0983
12.310	-1.0458
12.644	-0.99335
12.977	-0.94087
13.384	-0.88839
13.813	-0.83591
14.241	-0.78343
14.670	-0.73095
15.099	-0.67848
15.528	-0.62600
15.957	-0.57352
16.386	-0.52104
16.815	-0.46856
17.244	-0.41609
17.673	-0.36361
18.102	-0.31113
18.531	-0.25865
18.960	-0.20617
19.389	-0.15369
19.818	-0.10122
20.204	-0.048737
20.260	0.0037415
20.316	0.056220
20.373	0.10870
20.429	0.16118
20.486	0.21365
20.542	0.26613
20.599	0.31861
20.655	0.37109
20.712	0.42357
20.768	0.47605
20.825	0.52852
20.967	0.58100
21.402	0.63348
21.837	0.68596
22.273	0.73844
22.708	0.79106
23.143	0.84407
23.578	0.89707
24.014	0.94968
24.449	1.0022
24.884	1.0548
25.319	1.1073
25.754	1.1599
26.190	1.2124
26.625	1.2650
27.060	1.3175
27.495	1.3701
27.931	1.4227
28.366	1.4752
28.801	1.5278
28.847	1.5803
28.892	1.6329
28.936	1.6854
28.981	1.7380
29.025	1.7905
29.070	1.8431
29.114	1.8956
29.159	1.9482
29.203	2.0007
29.248	2.0533
29.292	2.1058
29.337	2.1584
29.381	2.2109
29.426	2.2635
29.470	2.3160
29.515	2.3686
29.559	2.4211
29.604	2.4737
29.648	2.5263
29.795	2.5788
30.404	2.6314
31.013	2.6839
31.622	2.7365
32.231	2.7890
32.840	2.8416
33.449	2.8941
34.058	2.9467
34.667	2.9992
35.275	3.0518
35.884	3.1043
36.493	3.1569
36.975	3.2094
37.149	3.2620
37.322	3.3145
37.495	3.3671
37.668	3.4196
37.842	3.4722
38.015	3.5247
38.188	3.5773
38.361	3.6298
38.535	3.6824
38.708	3.7349
38.881	3.7875
39.054	3.8400
39.228	3.8925
39.401	3.9451
39.574	3.9976
39.747	4.0502
39.921	4.1027
40.094	4.1552
40.267	4.2078
40.440	4.2603
40.614	4.3129
41.113	4.3654
41.653	4.4180
42.193	4.4705
42.732	4.5230
43.272	4.5756
43.812	4.6281
44.351	4.6807
44.891	4.7332
45.431	4.7857
45.971	4.8383
46.510	4.8908
46.676	4.9434
46.744	4.9959
46.812	5.0484
46.880	5.1010
46.948	5.1535
47.016	5.2061
47.084	5.2586
47.152	5.3111
47.220	5.3637
47.288	5.4162
47.356	5.4688
47.424	5.5213
47.492	5.5738
47.560	5.6264
47.628	5.6789
47.696	5.7315
47.764	5.7840
47.832	5.8365
47.900	5.8891
47.968	5.9416
48.037	5.9941
48.105	6.0466
48.173	6.0991
48.250	6.1516
48.922	6.2041
49.594	6.2566
50.266	6.3092
50.938	6.3617
51.611	6.4142
52.283	6.4667
52.955	6.5192
53.627	6.5717
54.299	6.6242
54.971	6.6767
55.644	6.7293
56.244	6.7818
56.343	6.8343
56.443	6.8868
56.543	6.9393
56.642	6.9918
56.742	7.0443
56.842	7.0968
56.941	7.1494
57.041	7.2019
57.140	7.2544
57.240	7.3069
57.340	7.3594
57.439	7.4119
57.539	7.4644
57.639	7.5170
57.738	7.5695
57.838	7.6220
57.938	7.6745
58.037	7.7270
58.137	7.7795
58.236	7.8320
58.336	7.8845
58.436	7.9371
58.535	7.9896
58.635	8.0421
59.049	8.0946
59.717	8.1471
60.385	8.1996
61.052	8.2508
61.720	8.3000
62.387	8.3492
63.055	8.4088
63.722	8.4683
64.390	8.5233
65.057	8.5756
65.725	8.6278
66.392	8.6800
66.660	8.7323
66.726	8.7845
66.792	8.8368
66.858	8.8890
66.924	8.9413
66.990	8.9935
67.056	9.0458
67.121	9.0980
67.187	9.1503
67.253	9.2025
67.319	9.2547
67.385	9.3070
67.451	9.3592
67.517	9.4115
67.583	9.4637
67.649	9.5160
67.715	9.5682
67.781	9.6205
67.847	9.6727
67.913	9.7250
67.979	9.7772
68.221	9.8294
68.955	9.8816
69.689	9.9338
70.424	9.9849
71.158	10.011
63.381	9.9754
58.830	9.9138
55.762	9.8538
55.291	9.8045
54.820	9.7551
54.349	9.7058
53.878	9.6565
53.407	9.6071
52.937	9.5578
52.466	9.5085
51.995	9.4591
51.524	9.4098
51.053	9.3605
50.582	9.3112
50.111	9.2610
49.640	9.2085
49.169	9.1559
48.698	9.1033
48.227	9.0508
47.756	8.9982
47.285	8.9456
46.814	8.8930
46.343	8.8405
45.872	8.7879
45.401	8.7353
44.931	8.6828
44.460	8.6302
43.989	8.5776
43.518	8.5250
43.047	8.4725
42.576	8.4199
42.211	8.3673
41.919	8.3148
41.627	8.2622
41.335	8.2096
41.043	8.1570
40.751	8.1045
40.458	8.0519
40.166	7.9993
39.874	7.9467
39.582	7.8942
39.290	7.8416
38.997	7.7890
38.705	7.7365
38.413	7.6839
38.121	7.6313
37.829	7.5787
37.537	7.5262
37.244	7.4736
36.952	7.4210
36.660	7.3685
36.368	7.3159
36.076	7.2633
35.783	7.2107
35.491	7.1582
35.199	7.1056
34.907	7.0530
34.615	7.0005
34.323	6.9479
34.030	6.8953
33.738	6.8427
33.446	6.7902
33.154	6.7376
32.862	6.6850
32.569	6.6325
32.277	6.5799
31.985	6.5273
31.693	6.4747
31.401	6.4222
31.109	6.3696
30.816	6.3170
30.524	6.2645
30.232	6.2119
29.940	6.1593
29.648	6.1067
29.356	6.0542
29.063	6.0016
28.771	5.9490
28.479	5.8964
28.187	5.8439
27.895	5.7913
27.602	5.7387
27.310	5.6862
27.018	5.6336
26.726	5.5810
26.434	5.5284
26.142	5.4759
25.849	5.4233
25.557	5.3707
25.265	5.3182
24.973	5.2656
24.681	5.2130
24.388	5.1604
24.096	5.1079
23.804	5.0553
23.512	5.0027
23.220	4.9502
22.928	4.8976
22.635	4.8450
22.343	4.7924
22.051	4.7399
21.759	4.6873
21.467	4.6347
21.175	4.5822
20.882	4.5296
20.590	4.4770
20.298	4.4244
20.006	4.3719
19.714	4.3193
19.421	4.2667
19.129	4.2141
18.837	4.1616
18.545	4.1090
18.253	4.0564
17.961	4.0039
17.668	3.9513
17.376	3.8987
17.084	3.8428
16.792	3.7882
16.500	3.7357
16.207	3.6831
15.915	3.6305
15.623	3.5780
15.331	3.5254
15.039	3.4728
14.747	3.4202
14.454	3.3677
14.162	3.3151
13.870	3.2625
13.578	3.2100
13.286	3.1574
12.993	3.1048
12.701	3.0523
12.409	2.9997
12.117	2.9471
11.825	2.8946
11.533	2.8420
11.240	2.7894
10.948	2.7368
10.656	2.6843
10.364	2.6317
10.072	2.5791
9.7795	2.5266
9.4873	2.4740
9.1952	2.4214
8.9030	2.3689
8.6108	2.3163
8.3186	2.2637
8.0264	2.2112
7.7343	2.1586
7.4421	2.1060
7.1499	2.0534
6.8577	2.0009
6.5656	1.9483
6.2734	1.8957
5.9812	1.8432
5.6890	1.7906
5.3968	1.7380
5.1047	1.6855
4.8125	1.6329
4.5203	1.5803
4.2281	1.5278
3.9359	1.4752
3.6438	1.4226
3.3516	1.3700
3.0594	1.3175
2.7672	1.2649
2.4750	1.2123
2.1829	1.1598
1.8907	1.1072
1.5985	1.0546
1.3063	1.0021
1.0141	0.94949
0.72197	0.89692
0.42979	0.84435
0.13761	0.79178
-0.15457	0.73922
-0.44675	0.68665
-0.73893	0.63408
-1.0311	0.58151
-1.3233	0.52894
-1.6155	0.47637
-1.9076	0.42380
-2.1998	0.37123
-2.4920	0.31866
-2.7842	0.26609
-3.0764	0.21352
-3.3685	0.16095
-3.6607	0.10839
-3.9529	0.055816
-4.2451	0.0034824
-4.5373	-0.048241
-4.8294	-0.099964
-5.1216	-0.15178
-5.4138	-0.20435
-5.7060	-0.25691
-5.9982	-0.30948
-6.2903	-0.36205
-6.5825	-0.41462
-6.8747	-0.46718
-7.1669	-0.51975
-7.4590	-0.57232
-7.7512	-0.62489
-8.0434	-0.67745
-8.3356	-0.73002
-8.6278	-0.78259
-8.9199	-0.83515
-9.2121	-0.88772
-9.5043	-0.94029
-9.7965	-0.99286
-10.089	-1.0454
-10.381	-1.0980
-10.673	-1.1506
-10.965	-1.2031
-11.257	-1.2557
-11.550	-1.3083
-11.842	-1.3608
-12.134	-1.4134
-12.426	-1.4660
-12.718	-1.5185
-13.010	-1.5711
-13.303	-1.6237
-13.595	-1.6762
-13.887	-1.7288
-14.179	-1.7814
-14.471	-1.8339
-14.764	-1.8865
-15.056	-1.9391
-15.348	-1.9916
-15.640	-2.0442
-15.932	-2.0968
-16.224	-2.1493
-16.514	-2.2019
-16.798	-2.2545
-17.082	-2.3070
-17.366	-2.3596
-17.650	-2.4122
-17.934	-2.4647
-18.218	-2.5173
-18.502	-2.5699
-18.786	-2.6224
-19.070	-2.6750
-19.354	-2.7276
-19.637	-2.7802
-19.921	-2.8327
-20.205	-2.8853
-20.489	-2.9379
-20.773	-2.9904
-21.057	-3.0430
-21.341	-3.0956
-21.625	-3.1481
-21.909	-3.2007
-22.193	-3.2533
-22.477	-3.3058
-22.761	-3.3584
-23.044	-3.4110
-23.328	-3.4635
-23.612	-3.5161
-23.896	-3.5687
-24.180	-3.6212
-24.464	-3.6738
-24.748	-3.7264
-25.032	-3.7789
-25.316	-3.8315
-25.600	-3.8841
-25.884	-3.9366
-26.168	-3.9892
-26.452	-4.0418
-26.735	-4.0943
-27.019	-4.1469
-27.303	-4.1995
-27.587	-4.2520
-27.871	-4.3045
-28.155	-4.3570
-28.439	-4.4096
-28.723	-4.4621
-29.007	-4.5146
-29.291	-4.5672
-29.575	-4.6197
-29.859	-4.6722
-30.142	-4.7247
-30.426	-4.7773
-30.710	-4.8298
-30.994	-4.8823
-31.278	-4.9349
-31.562	-4.9874
-31.846	-5.0399
-32.130	-5.0924
-32.414	-5.1450
-32.698	-5.1975
-32.982	-5.2500
-33.266	-5.3025
-33.549	-5.3551
-33.833	-5.4076
-34.117	-5.4601
-34.401	-5.5127
-34.685	-5.5652
-34.969	-5.6177
-35.253	-5.6702
-35.537	-5.7228
-35.821	-5.7753
-36.105	-5.8278
-36.389	-5.8804
-36.673	-5.9329
-36.956	-5.9854
-37.240	-6.0379
-37.524	-6.0905
-37.808	-6.1430
-38.092	-6.1955
-38.376	-6.2480
-38.660	-6.3006
-38.927	-6.3531
-39.191	-6.4056
-39.454	-6.4582
-39.717	-6.5107
-39.980	-6.5632
-40.244	-6.6157
-40.507	-6.6683
-40.770	-6.7208
-41.034	-6.7733
-41.297	-6.8258
-41.560	-6.8784
-41.823	-6.9309
-42.087	-6.9834
-42.350	-7.0360
-42.613	-7.0885
-42.876	-7.1410
-43.140	-7.1935
-43.403	-7.2461
-43.666	-7.2986
-43.929	-7.3511
-44.193	-7.4037
-44.456	-7.4562
-44.719	-7.5087
-44.983	-7.5612
-45.246	-7.6138
-45.509	-7.6663
-45.772	-7.7188
-46.036	-7.7713
-46.305	-7.8239
-46.594	-7.8764
-46.882	-7.9289
-47.171	-7.9815
-47.459	-8.0340
-47.748	-8.0865
-48.036	-8.1390
-48.325	-8.1916
-48.613	-8.2441
-48.901	-8.2966
-49.190	-8.3492
-49.478	-8.4017
-49.767	-8.4542
-50.055	-8.5067
-50.344	-8.5593
-50.632	-8.6118
-50.920	-8.6643
-51.209	-8.7168
-51.497	-8.7694
-51.786	-8.8219
-52.074	-8.8744
-52.363	-8.9270
-52.651	-8.9795
-52.939	-9.0320
-53.228	-9.0845
-53.516	-9.1371
-53.805	-9.1896
-54.093	-9.2421
-54.382	-9.2947
-54.670	-9.3472
-54.958	-9.3997
-55.247	-9.4522
-55.535	-9.5048
-55.824	-9.5573
-56.112	-9.6098
-56.401	-9.6623
-56.689	-9.7151
-56.977	-9.7679
-57.266	-9.8207
-57.554	-9.8736
-57.843	-9.9264
-58.105	-9.9789
-57.855	-10.012
-51.869	-9.9768
-47.706	-9.9083
-34.648	-9.8622
-34.308	-9.8190
-34.138	-9.7973