File: text_data/C9.txt
Load (N)	Extension (mm)

0.20448	-0.046387
0.21346	-0.046387
0.22244	-0.046387
0.23141	-0.046387
0.24039	-0.046387
0.24937	-0.046387
0.25835	-0.046387
5.2123	0.031416
0.55385	0.060222
4.6500	0.12122
5.7071	0.16394
-4.9257	0.033900
-6.5254	-0.11036
-8.1251	-0.25834
-9.4434	-0.40929
-10.323	-0.56175
-11.202	-0.71420
-12.082	-0.86657
-12.962	-1.0189
-13.841	-1.1713
-14.721	-1.3238
-15.600	-1.4763
-16.480	-1.6287
-17.359	-1.7812
-18.239	-1.9337
-19.118	-2.0862
-19.998	-2.2387
-20.877	-2.3894
-21.757	-2.5403
-22.636	-2.6913
-23.516	-2.8423
-24.395	-2.9933
-25.275	-3.1443
-26.154	-3.2953
-27.034	-3.4469
-27.914	-3.5990
-28.793	-3.7502
-29.673	-3.9014
-30.552	-4.0525
-31.432	-4.2037
-32.311	-4.3549
-33.191	-4.5061
-34.070	-4.6573
-34.950	-4.8084
-35.829	-4.9596
-36.709	-5.1108
-37.588	-5.2620
-38.468	-5.4131
-39.333	-5.5643
-40.183	-5.7155
-41.033	-5.8667
-41.883	-6.0179
-42.732	-6.1690
-43.582	-6.3202
-44.432	-6.4714
-45.282	-6.6226
-46.132	-6.7737
-46.982	-6.9249
-47.831	-7.0761
-48.681	-7.2273
-49.531	-7.3785
-50.381	-7.5296
-51.231	-7.6808
-52.081	-7.8320
-52.931	-7.9830
-53.780	-8.1340
-54.630	-8.2850
-55.480	-8.4361
-56.330	-8.5871
-57.180	-8.7381
-58.030	-8.8891
-58.881	-9.0401
-59.752	-9.1911
-60.624	-9.3422
-61.495	-9.4932
-62.366	-9.6442
-63.238	-9.7952
-64.109	-9.9462
-64.981	-10.097
-65.852	-10.248
-66.724	-10.399
-67.595	-10.550
-68.467	-10.701
-69.338	-10.852
-70.209	-11.003
-71.081	-11.154
-71.952	-11.306
-72.824	-11.457
-73.695	-11.608
-74.567	-11.759
-75.438	-11.910
-76.326	-12.061
-77.232	-12.212
-78.137	-12.363
-79.043	-12.514
-79.949	-12.665
-80.854	-12.816
-81.760	-12.968
-82.665	-13.119
-83.571	-13.270
-84.477	-13.421
-85.382	-13.572
-86.288	-13.724
-87.193	-13.875
-88.099	-14.026
-89.005	-14.177
-89.910	-14.328
-90.756	-14.480
-91.585	-14.631
-92.413	-14.782
-93.242	-14.933
-94.070	-15.085
-94.898	-15.236
-95.727	-15.387
-96.555	-15.538
-97.384	-15.690
-98.212	-15.841
-99.041	-15.992
-99.869	-16.143
-100.70	-16.295
-101.53	-16.446
-102.35	-16.597
-103.28	-16.748
-104.27	-16.899
-105.26	-17.050
-106.26	-17.201
-107.25	-17.352
-108.24	-17.503
-109.23	-17.654
-110.22	-17.805
-111.21	-17.956
-112.20	-18.107
-113.19	-18.258
-114.20	-18.409
-115.81	-18.560
-117.42	-18.712
-119.03	-18.863
-121.36	-19.014
-124.13	-19.165
-127.02	-19.316
-129.84	-19.466
-132.63	-19.614
-135.41	-19.765
-138.20	-19.916
-140.62	-20.067
-142.11	-20.218
-143.61	-20.369
-145.10	-20.520
-146.59	-20.671
-148.09	-20.822
-149.58	-20.973
-151.08	-21.124
-152.61	-21.275
-164.29	-21.426
-185.17	-21.577
-201.54	-21.729
-212.55	-21.880
-228.10	-22.031
-252.92	-22.181
-276.27	-22.332
-297.39	-22.482
-318.52	-22.633
-339.64	-22.783
-360.77	-22.934
-381.89	-23.084
-403.02	-23.235
-424.14	-23.385
-445.27	-23.535
-454.76	-23.685
-489.80	-23.835
-491.93	-23.828
-495.91	-23.876
-484.84	-23.831
-362.76	-23.687
-270.89	-23.547
-210.03	-23.400
-149.17	-23.249
-117.37	-23.098
-116.72	-22.946
-116.08	-22.795
-115.43	-22.644
-114.79	-22.493
-114.14	-22.342
-113.50	-22.191
-112.85	-22.040
-112.21	-21.889
-111.56	-21.738
-110.92	-21.587
-110.28	-21.435
-109.63	-21.284
-108.99	-21.133
-108.34	-20.982
-107.70	-20.831
-107.05	-20.680
-106.41	-20.529
-105.76	-20.378
-105.12	-20.227
-104.47	-20.076
-103.83	-19.924
-103.19	-19.773
-102.54	-19.622
-101.90	-19.471
-92.250	-19.320
-80.275	-19.169
-79.444	-19.018
-78.614	-18.867
-77.783	-18.716
-76.952	-18.565
-76.121	-18.413
-75.290	-18.262
-74.459	-18.111
-73.496	-17.960
-72.437	-17.809
-71.377	-17.658
-70.429	-17.507
-69.575	-17.356
-68.720	-17.205
-67.865	-17.054
-67.011	-16.903
-66.341	-16.752
-66.087	-16.601
-65.832	-16.450
-65.578	-16.299
-65.323	-16.147
-65.069	-15.996
-64.814	-15.845
-62.992	-15.694
-61.120	-15.543
-59.556	-15.392
-59.139	-15.241
-58.723	-15.090
-58.306	-14.939
-57.889	-14.788
-57.472	-14.637
-57.056	-14.486
-56.639	-14.335
-56.222	-14.183
-55.805	-14.032
-54.152	-13.881
-52.263	-13.730
-50.374	-13.579
-48.875	-13.428
-48.508	-13.277
-48.141	-13.125
-47.774	-12.974
-47.406	-12.822
-47.039	-12.671
-46.672	-12.522
-46.305	-12.371
-45.638	-12.220
-44.130	-12.069
-42.622	-11.918
-41.114	-11.766
-39.606	-11.615
-38.743	-11.464
-38.352	-11.313
-37.962	-11.162
-37.572	-11.010
-37.181	-10.859
-36.791	-10.708
-36.401	-10.557
-35.692	-10.406
-34.969	-10.255
-34.247	-10.104
-33.314	-9.9525
-32.031	-9.8015
-30.749	-9.6504
-29.467	-9.4994
-28.365	-9.3484
-27.828	-9.1973
-27.291	-9.0463
-26.753	-8.8952
-26.216	-8.7442
-25.758	-8.5932
-25.503	-8.4421
-25.247	-8.2911
-24.992	-8.1401
-23.797	-7.9890
-22.195	-7.8380
-20.593	-7.6869
-19.644	-7.5351
-19.023	-7.3792
-18.402	-7.2288
-17.781	-7.0783
-17.161	-6.9279
-16.540	-6.7774
-15.919	-6.6270
-15.298	-6.4765
-14.979	-6.3260
-14.677	-6.1756
-14.375	-6.0246
-12.924	-5.8735
-11.366	-5.7224
-9.8089	-5.5713
-8.5798	-5.4202
-8.0106	-5.2691
-7.4413	-5.1180
-6.8720	-4.9668
-6.3027	-4.8157
-5.7334	-4.6646
-5.1641	-4.5135
-4.5949	-4.3624
-4.1566	-4.2113
-3.9746	-4.0602
-3.7925	-3.9090
-3.6105	-3.7577
-2.8176	-3.6064
-1.3613	-3.4551
0.094953	-3.3038
1.5512	-3.1525
1.9988	-3.0013
2.3291	-2.8500
2.6594	-2.6987
2.9897	-2.5474
3.3200	-2.3935
3.6503	-2.2422
3.6961	-2.0912
3.5146	-1.9403
4.1056	-1.7893
6.1264	-1.6384
8.1473	-1.4874
10.168	-1.3365
11.322	-1.1855
11.580	-1.0346
11.838	-0.88361
12.095	-0.73266
12.353	-0.58170
12.611	-0.43075
12.869	-0.27974
13.660	-0.12865
15.560	0.022434
17.460	0.17352
18.862	0.32461
19.059	0.47570
19.257	0.62679
19.454	0.77788
19.651	0.92896
19.848	1.0801
20.046	1.2311
21.338	1.3822
22.685	1.5333
24.031	1.6844
25.258	1.8355
25.328	1.9866
25.397	2.1377
25.466	2.2888
25.535	2.4398
26.631	2.5909
28.201	2.7420
29.772	2.8931
31.228	3.0442
31.649	3.1953
32.071	3.3464
32.493	3.4975
32.915	3.6486
33.898	3.7996
35.674	3.9507
37.262	4.1018
38.137	4.2529
39.011	4.4040
39.886	4.5551
40.760	4.7062
41.635	4.8573
42.509	5.0084
43.133	5.1593
43.218	5.3103
43.303	5.4612
43.388	5.6122
43.473	5.7631
44.655	5.9140
46.479	6.0650
48.303	6.2159
49.565	6.3669
50.452	6.5178
51.339	6.6688
52.227	6.8197
53.114	6.9707
53.378	7.1216
53.582	7.2726
53.787	7.4236
53.991	7.5749
54.196	7.7262
55.283	7.8775
56.414	8.0288
57.546	8.1801
58.677	8.3315
59.808	8.4828
60.940	8.6341
61.605	8.7854
61.975	8.9366
62.345	9.0875
62.715	9.2384
63.689	9.3893
65.325	9.5403
66.961	9.6912
68.597	9.8421
69.185	9.9811
69.648	10.152
70.110	10.305
70.573	10.454
71.036	10.602
71.499	10.751
72.380	10.899
73.599	11.049
74.818	11.200
76.302	11.351
78.600	11.502
79.530	11.653
80.251	11.805
80.972	11.956
81.693	12.107
82.414	12.258
83.135	12.409
83.856	12.560
84.577	12.712
85.298	12.863
86.019	13.014
86.741	13.165
87.462	13.316
88.183	13.467
88.904	13.619
90.252	13.770
91.748	13.921
93.243	14.072
94.340	14.223
95.323	14.374
96.306	14.526
97.125	14.677
97.261	14.828
97.397	14.979
97.534	15.130
97.965	15.281
98.980	15.433
99.996	15.584
101.01	15.735
102.03	15.886
103.04	16.037
104.06	16.188
105.07	16.340
106.09	16.491
107.10	16.642
107.70	16.793
108.28	16.944
108.86	17.095
109.52	17.246
110.82	17.398
112.12	17.549
113.42	17.700
114.72	17.851
116.03	18.002
117.37	18.153
118.79	18.305
120.22	18.456
121.65	18.607
123.07	18.758
124.05	18.909
124.78	19.060
125.50	19.212
126.22	19.363
126.94	19.515
127.66	19.666
128.39	19.817
129.49	19.969
130.59	20.120
131.92	20.271
133.32	20.422
134.45	20.573
135.05	20.724
135.64	20.876
136.24	21.027
136.84	21.178
137.44	21.329
138.04	21.480
138.64	21.631
140.17	21.782
143.57	21.933
144.41	22.085
145.12	22.236
145.84	22.387
146.56	22.538
147.28	22.689
148.00	22.840
148.71	22.991
149.43	23.143
150.15	23.294
150.87	23.445
151.71	23.596
153.06	23.747
154.29	23.898
155.26	24.049
156.22	24.199
157.18	24.350
158.15	24.501
159.11	24.652
160.07	24.803
161.03	24.954
162.00	25.105
163.20	25.256
165.51	25.407
167.82	25.558
168.91	25.709
169.97	25.861
171.03	26.012
172.09	26.163
173.15	26.314
174.21	26.465
175.26	26.616
176.32	26.767
177.38	26.918
179.33	27.069
181.87	27.220
184.21	27.371
185.13	27.522
186.04	27.673
186.96	27.825
187.88	27.976
188.79	28.127
189.71	28.278
190.63	28.429
191.54	28.580
192.46	28.731
193.38	28.882
194.29	29.033
195.21	29.184
198.01	29.335
201.54	29.486
205.08	29.637
208.61	29.789
211.10	29.940
212.84	30.091
214.59	30.242
216.33	30.393
218.07	30.544
219.81	30.695
221.51	30.846
223.06	30.998
224.61	31.149
226.16	31.300
227.70	31.451
229.53	31.602
232.06	31.753
234.59	31.904
237.12	32.056
239.66	32.207
242.19	32.358
244.72	32.509
247.25	32.660
250.02	32.811
252.83	32.962
255.65	33.114
258.46	33.265
261.27	33.415
264.09	33.566
266.90	33.717
269.72	33.868
272.53	34.018
275.34	34.169
278.16	34.320
280.86	34.471
283.26	34.622
285.65	34.774
292.04	34.926
299.55	35.078
306.66	35.229
312.84	35.380
319.02	35.530
325.20	35.681
331.38	35.832
337.56	35.983
343.74	36.134
349.71	36.285
354.32	36.436
358.94	36.587
364.09	36.738
373.98	36.889
383.88	37.040
393.77	37.191
403.66	37.342
413.56	37.493
425.11	37.644
437.83	37.795
450.55	37.945
463.26	38.096
475.98	38.247
488.75	38.398
477.46	38.375
387.42	38.226
347.42	38.082
329.10	37.931
310.79	37.780
292.47	37.629
274.16	37.478
256.99	37.327
252.86	37.176
248.74	37.025
244.61	36.874
240.49	36.723
236.36	36.572
232.23	36.421
228.11	36.271
223.98	36.120
219.86	35.969
215.73	35.818
211.60	35.667
207.48	35.516
203.35	35.365
199.23	35.214
195.10	35.063
201.69	34.912
200.14	34.761
198.58	34.610
197.03	34.459
195.47	34.308
193.92	34.157
192.36	34.006
190.81	33.855
189.25	33.704
187.70	33.553
186.14	33.402
184.59	33.251
183.03	33.100
181.48	32.949
179.92	32.797
178.37	32.646
176.81	32.495
175.26	32.344
173.70	32.193
172.15	32.042
170.59	31.891
169.03	31.740
167.48	31.589
165.92	31.438
163.93	31.287
161.92	31.136
160.07	30.984
158.99	30.833
157.91	30.682
156.84	30.531
155.76	30.380
154.68	30.229
153.60	30.078
152.52	29.927
151.44	29.776
150.37	29.625
149.29	29.474
148.21	29.322
147.13	29.171
146.05	29.020
144.98	28.869
143.90	28.718
142.82	28.567
141.74	28.416
140.66	28.265
139.58	28.113
138.51	27.962
137.43	27.811
136.35	27.660
135.27	27.509
134.19	27.358
133.12	27.207
132.04	27.056
130.96	26.904
129.88	26.753
128.80	26.602
127.72	26.451
126.65	26.300
125.57	26.149
124.49	25.998
123.41	25.847
122.33	25.695
121.34	25.544
120.37	25.393
119.39	25.242
118.41	25.091
117.43	24.940
116.45	24.789
115.47	24.638
114.49	24.487
113.52	24.335
112.54	24.184
111.56	24.033
110.58	23.882
109.60	23.731
108.62	23.580
107.64	23.429
106.67	23.278
105.69	23.126
104.71	22.975
103.73	22.824
102.75	22.673
101.77	22.520
100.79	22.366
99.815	22.217
98.836	22.067
97.858	21.916
96.879	21.765
95.900	21.614
94.922	21.463
93.943	21.312
92.964	21.160
91.986	21.009
91.007	20.858
90.084	20.707
89.166	20.556
88.248	20.405
87.330	20.254
86.412	20.103
85.494	19.952
84.576	19.800
83.658	19.649
82.740	19.498
81.822	19.347
80.903	19.196
79.985	19.045
79.067	18.894
78.149	18.743
77.231	18.592
76.313	18.440
75.395	18.289
74.477	18.138
73.559	17.987
72.658	17.836
71.769	17.685
70.879	17.534
69.989	17.383
69.099	17.232
68.210	17.080
67.320	16.929
66.430	16.778
65.540	16.627
64.651	16.476
63.761	16.325
62.871	16.174
61.982	16.023
61.092	15.872
60.220	15.721
59.392	15.569
58.564	15.418
57.735	15.267
56.907	15.116
56.079	14.965
55.250	14.814
54.422	14.663
53.594	14.512
52.766	14.361
51.937	14.209
51.109	14.058
50.281	13.907
49.452	13.755
48.624	13.603
47.796	13.451
46.967	13.300
46.139	13.149
45.311	12.998
44.483	12.847
43.654	12.696
42.826	12.546
41.998	12.395
41.169	12.244
40.341	12.093
39.513	11.942
38.684	11.791
37.856	11.640
37.028	11.489
36.213	11.337
35.399	11.186
34.586	11.034
33.772	10.883
32.958	10.732
32.145	10.580
31.331	10.429
30.517	10.278
29.704	10.126
28.890	9.9753
28.076	9.8242
27.263	9.6731
26.449	9.5220
25.636	9.3709
24.822	9.2198
24.008	9.0687
23.195	8.9176
22.381	8.7665
21.567	8.6154
20.754	8.4643
19.940	8.3132
19.127	8.1621
18.313	8.0110
17.499	7.8599
16.686	7.7088
15.872	7.5577
15.058	7.4066
14.250	7.2555
13.453	7.1044
12.656	6.9533
11.859	6.8022
11.062	6.6511
10.265	6.5000
9.4676	6.3489
8.6705	6.1978
7.8734	6.0467
7.0763	5.8956
6.2791	5.7446
5.4820	5.5935
4.6849	5.4424
3.8878	5.2914
3.0907	5.1403
2.2935	4.9892
1.4964	4.8381
0.69929	4.6869
-0.097836	4.5356
-0.89496	4.3843
-1.6921	4.2330
-2.4892	4.0818
-3.2863	3.9305
-4.0834	3.7792
-4.8806	3.6279
-5.6777	3.4767
-6.4945	3.3255
-7.3117	3.1743
-8.1290	3.0232
-8.9462	2.8720
-9.7634	2.7208
-10.581	2.5696
-11.398	2.4184
-12.215	2.2672
-13.032	2.1160
-13.850	1.9648
-14.667	1.8136
-15.484	1.6640
-16.301	1.5144
-17.119	1.3633
-17.916	1.2122
-18.679	1.0610
-19.441	0.90992
-20.204	0.75880
-20.967	0.60768
-21.730	0.45655
-22.493	0.30543
-23.256	0.15431
-24.019	0.0031837
-24.782	-0.14794
-25.544	-0.29906
-26.307	-0.45019
-27.070	-0.60131
-27.833	-0.75243
-28.596	-0.90356
-29.359	-1.0547
-30.122	-1.2058
-30.884	-1.3569
-31.647	-1.5081
-32.410	-1.6592
-33.173	-1.8103
-33.936	-1.9614
-34.691	-2.1125
-35.445	-2.2637
-36.199	-2.4148
-36.952	-2.5659
-37.706	-2.7170
-38.460	-2.8682
-39.214	-3.0193
-39.967	-3.1704
-40.721	-3.3215
-41.475	-3.4727
-42.229	-3.6238
-42.983	-3.7752
-43.736	-3.9271
-44.490	-4.0786
-45.244	-4.2297
-46.010	-4.3808
-46.781	-4.5319
-47.552	-4.6830
-48.323	-4.8341
-49.094	-4.9852
-49.865	-5.1363
-50.636	-5.2874
-51.407	-5.4386
-52.178	-5.5897
-52.948	-5.7408
-53.719	-5.8919
-54.490	-6.0430
-55.261	-6.1941
-56.032	-6.3452
-56.799	-6.4963
-57.525	-6.6474
-58.251	-6.7985
-58.976	-6.9497
-59.702	-7.1008
-60.428	-7.2519
-61.154	-7.4029
-61.880	-7.5539
-62.606	-7.7049
-63.379	-7.8559
-64.190	-8.0069
-65.001	-8.1579
-65.813	-8.3090
-66.624	-8.4600
-67.435	-8.6110
-68.246	-8.7620
-69.057	-8.9130
-69.869	-9.0640
-70.680	-9.2150
-71.491	-9.3661
-72.302	-9.5171
-73.113	-9.6681
-73.924	-9.8191
-74.736	-9.9704
-75.547	-10.122
-76.358	-10.273
-77.169	-10.424
-77.980	-10.575
-78.791	-10.727
-79.603	-10.878
-80.414	-11.029
-81.225	-11.180
-82.036	-11.332
-82.847	-11.483
-83.658	-11.634
-84.470	-11.785
-85.281	-11.937
-86.092	-12.088
-86.903	-12.239
-87.714	-12.390
-88.643	-12.541
-89.577	-12.692
-90.510	-12.844
-91.444	-12.995
-92.378	-13.146
-93.312	-13.297
-94.246	-13.448
-94.399	-13.599
-95.247	-13.750
-96.128	-13.902
-97.009	-14.053
-97.891	-14.204
-98.772	-14.355
-99.654	-14.506
-100.54	-14.657
-101.42	-14.808
-102.30	-14.960
-103.28	-15.111
-104.34	-15.262
-105.39	-15.413
-106.45	-15.564
-107.51	-15.715
-108.56	-15.866
-109.62	-16.017
-110.67	-16.169
-111.73	-16.320
-112.79	-16.471
-113.84	-16.622
-114.90	-16.773
-115.95	-16.924
-117.00	-17.075
-118.05	-17.227
-119.10	-17.378
-120.15	-17.529
-121.20	-17.680
-122.25	-17.831
-123.30	-17.982
-124.35	-18.133
-125.42	-18.284
-126.74	-18.435
-128.05	-18.587
-129.37	-18.738
-130.68	-18.889
-132.00	-19.040
-133.32	-19.191
-134.62	-19.342
-135.88	-19.493
-137.13	-19.644
-138.39	-19.796
-139.65	-19.947
-140.91	-20.098
-142.16	-20.249
-143.42	-20.400
-144.68	-20.551
-145.93	-20.702
-148.10	-20.853
-150.99	-21.004
-160.15	-21.156
-168.82	-21.307
-175.47	-21.458
-181.86	-21.609
-188.25	-21.760
-195.88	-21.911
-208.18	-22.062
-221.59	-22.213
-238.11	-22.364
-260.85	-22.513
-281.77	-22.663
-302.69	-22.813
-323.61	-22.963
-344.53	-23.113
-365.44	-23.263
-386.36	-23.413
-412.95	-23.563
-453.48	-23.713
-500.55	-23.817
-382.89	-23.657
-335.74	-23.592